File: Test_Data_Files/20250509_S_IF0011_IIA42_E05_PBSair_PEDOT_CV5000.DTA
EXPLAIN
TAG	CV
TITLE	LABEL	CV5000	Test Identifier
DATE	LABEL	5/9/2025	Date
TIME	LABEL	15:09:06	Time
NOTES	NOTES	1	Notes...

PSTAT	PSTAT	REF600P-43058	Potentiostat
VINIT	POTEN	0.00000E+000	T	Initial E (V)
VLIMIT1	POTEN	-9.00000E-001	F	Scan Limit 1 (V)
VLIMIT2	POTEN	6.00000E-001	F	Scan Limit 2 (V)
VFINAL	POTEN	0.00000E+000	T	Final E (V)
SCANRATE	QUANT	4.99999E+003	Scan Rate (mV/s)
STEPSIZE	QUANT	1.00000E+001	Step Size (mV)
CYCLES	IQUANT	3	Cycles (#)
IMODE	SELECTOR	1	I/E Range Mode
IRANGE	QUANT	1.00000E-002	Max Current (mA)
AREA	QUANT	1.00000E+000	Sample Area (cm^2)
EQDELAY	QUANT	5.00000E+000	Equil. Time (s)
IRCOMP	SELECTOR	0	IRComp
PFCOR	QUANT	5.00000E+001	PF Corr. (ohm)
SAMPLINGMODE	SELECTOR	2	Sampling Mode
EOC	QUANT	0.1578694	Open Circuit (V)
ELECTRODETYPE	SELECTOR	0	Electrode Type
STRIPPING	TOGGLE	F	Used for Stripping
SEQUENCER	TOGGLE	TRUE	Run as Sequence
PSTATMODEL	IQUANT	7	Pstat Model
PSTATSECTION	LABEL	REF600P-43058	Pstat Section
PSTATSERIALNO	LABEL	43058	Pstat Serial Number
CTRLMODE	IQUANT	1	Control Mode
ELECTROMETER	IQUANT	0	RE=0 or CS=1
IESTAB	IQUANT	2	I/E Stability
CASPEED	IQUANT	4	Control Amp Speed
CONVENTION	IQUANT	1	Current Convention
ICHRANGE	IQUANT	2	Ich Range
ICHRANGEMODE	TOGGLE	F	Ich Auto Range
ICHOFFSETENABLE	TOGGLE	F	Ich Offset Enable
ICHOFFSET	QUANT	0	Ich Offset (V)
ICHFILTER	IQUANT	2	Ich Filter
VCHRANGE	IQUANT	2	Vch Range
VCHRANGEMODE	TOGGLE	F	Vch Auto Range
VCHOFFSETENABLE	TOGGLE	F	Vch Offset Enable
VCHOFFSET	QUANT	0	Vch Offset (V)
VCHFILTER	IQUANT	2	Vch Filter
ACHRANGE	IQUANT	2	Ach Range
ACHOFFSETENABLE	TOGGLE	F	Ach Offset Enable
ACHOFFSET	QUANT	0	Ach Offset (V)
ACHFILTER	IQUANT	1	Ach Filter
IERANGELOWERLIMIT	IQUANT	1	I/E Range Lower Limit
IERANGEMODE	TOGGLE	F	I/E AutoRange
IERANGE	IQUANT	7	I/E Range
POSFEEDENABLE	TOGGLE	F	Positive Feedback IR Comp
POSFEEDRESISTANCE	QUANT	0	Positive Feedback Resistance (ohm)
ACHSELECT	IQUANT	4	Ach Select
SENSECABLEID	IQUANT	7	Sense Cable ID
PWRCABLEID	IQUANT	7	Power Cable ID
DCCALDATE	LABEL	5/8/2025	DC Calibration Date
ACCALDATE	LABEL	5/8/2025	AC Calibration Date
THERMOSELECT	IQUANT	1	Thermo Select
FRAMEWORKVERSION	LABEL	7.10.4	Framework Version
INSTRUMENTVERSION	LABEL	5.01	Instrument Version
COMMVERSION	LABEL	5.10	Communications Version
CPUPLDVERSION	LABEL	6.00	CPU PLD Version
CTRLPLDVERSION	LABEL	3.21	CTRL PLD Version
PSTATPLDVERSION	LABEL	0.00	PSTAT PLD Version
CURVE1	TABLE
	Pt	T	Vf	Im	Vu	Sig	Ach	IERange	Over	Temp
	#	s	V vs. Ref.	A	V	V	V	#	bits	deg C
	0	0.002	1.57863E-001	8.61365E-009	0.00000E+000	1.57850E-001	1.41953E-003	7	...........	-327.66
	1	0.004	1.48714E-001	-7.24969E-007	0.00000E+000	1.47850E-001	1.37126E-003	7	...........	-327.66
	2	0.006	1.38694E-001	-1.11138E-006	0.00000E+000	1.37850E-001	1.39367E-003	7	...........	-327.66
	3	0.008	1.28689E-001	-1.38989E-006	0.00000E+000	1.27850E-001	1.41953E-003	7	...........	-327.66
	4	0.01	1.18714E-001	-1.61780E-006	0.00000E+000	1.17850E-001	1.46609E-003	7	...........	-327.66
	5	0.012	1.08708E-001	-1.81498E-006	0.00000E+000	1.07850E-001	1.41953E-003	7	...........	-327.66
	6	0.014	9.86799E-002	-1.98892E-006	0.00000E+000	9.78500E-002	1.45747E-003	7	...........	-327.66
	7	0.016	8.87161E-002	-2.14684E-006	0.00000E+000	8.78500E-002	1.42126E-003	7	...........	-327.66
	8	0.018	7.86773E-002	-2.29184E-006	0.00000E+000	7.78500E-002	1.44367E-003	7	...........	-327.66
	9	0.02	6.87264E-002	-2.42398E-006	0.00000E+000	6.78500E-002	1.46609E-003	7	...........	-327.66
	10	0.022	5.86695E-002	-2.54722E-006	0.00000E+000	5.78500E-002	1.46609E-003	7	...........	-327.66
	11	0.024	4.86816E-002	-2.66004E-006	0.00000E+000	4.78500E-002	1.46953E-003	7	...........	-327.66
	12	0.026	3.87221E-002	-2.76747E-006	0.00000E+000	3.78500E-002	1.45574E-003	7	...........	-327.66
	13	0.028	2.87282E-002	-2.86800E-006	0.00000E+000	2.78500E-002	1.46264E-003	7	...........	-327.66
	14	0.03	1.87058E-002	-2.96286E-006	0.00000E+000	1.78500E-002	1.40402E-003	7	...........	-327.66
	15	0.032	8.69627E-003	-3.05082E-006	0.00000E+000	7.84999E-003	1.45229E-003	7	...........	-327.66
	16	0.034	-1.33476E-003	-3.13531E-006	0.00000E+000	-2.15001E-003	1.37988E-003	7	...........	-327.66
	17	0.036	-1.12736E-002	-3.21403E-006	0.00000E+000	-1.21500E-002	1.44022E-003	7	...........	-327.66
	18	0.038	-2.13529E-002	-3.28994E-006	0.00000E+000	-2.21500E-002	1.45057E-003	7	...........	-327.66
	19	0.04	-3.13003E-002	-3.36298E-006	0.00000E+000	-3.21500E-002	1.47643E-003	7	...........	-327.66
	20	0.042	-4.13054E-002	-3.43111E-006	0.00000E+000	-4.21500E-002	1.47643E-003	7	...........	-327.66
	21	0.044	-5.13055E-002	-3.49798E-006	0.00000E+000	-5.21500E-002	1.46436E-003	7	...........	-327.66
	22	0.046	-6.12805E-002	-3.56184E-006	0.00000E+000	-6.21500E-002	1.47471E-003	7	...........	-327.66
	23	0.048	-7.13141E-002	-3.62459E-006	0.00000E+000	-7.21500E-002	1.46781E-003	7	...........	-327.66
	24	0.05	-8.13193E-002	-3.68356E-006	0.00000E+000	-8.21500E-002	1.39712E-003	7	...........	-327.66
	25	0.052	-9.12874E-002	-3.74173E-006	0.00000E+000	-9.21500E-002	1.45402E-003	7	...........	-327.66
	26	0.054	-1.01370E-001	-3.79842E-006	0.00000E+000	-1.02150E-001	1.43850E-003	7	...........	-327.66
	27	0.056	-1.11295E-001	-3.85246E-006	0.00000E+000	-1.12150E-001	1.46609E-003	7	...........	-327.66
	28	0.058	-1.21327E-001	-3.90723E-006	0.00000E+000	-1.22150E-001	1.41264E-003	7	...........	-327.66
	29	0.06	-1.31278E-001	-3.95855E-006	0.00000E+000	-1.32150E-001	1.48505E-003	7	...........	-327.66
	30	0.062	-1.41287E-001	-4.00961E-006	0.00000E+000	-1.42150E-001	1.42126E-003	7	...........	-327.66
	31	0.064	-1.51337E-001	-4.06115E-006	0.00000E+000	-1.52150E-001	1.40919E-003	7	...........	-327.66
	32	0.066	-1.61355E-001	-4.11060E-006	0.00000E+000	-1.62150E-001	1.51436E-003	7	...........	-327.66
	33	0.068	-1.71268E-001	-4.15918E-006	0.00000E+000	-1.72150E-001	1.40229E-003	7	...........	-327.66
	34	0.07	-1.81339E-001	-4.20765E-006	0.00000E+000	-1.82150E-001	1.40747E-003	7	...........	-327.66
	35	0.072	-1.91303E-001	-4.25547E-006	0.00000E+000	-1.92150E-001	1.41781E-003	7	...........	-327.66
	36	0.074	-2.01344E-001	-4.30211E-006	0.00000E+000	-2.02150E-001	1.45229E-003	7	...........	-327.66
	37	0.076	-2.11250E-001	-4.34929E-006	0.00000E+000	-2.12150E-001	1.45229E-003	7	...........	-327.66
	38	0.078	-2.21267E-001	-4.39271E-006	0.00000E+000	-2.22150E-001	1.39195E-003	7	...........	-327.66
	39	0.08	-2.31293E-001	-4.43892E-006	0.00000E+000	-2.32150E-001	1.44367E-003	7	...........	-327.66
	40	0.082	-2.41221E-001	-4.48202E-006	0.00000E+000	-2.42150E-001	1.48505E-003	7	...........	-327.66
	41	0.084	-2.51243E-001	-4.52626E-006	0.00000E+000	-2.52150E-001	1.40574E-003	7	...........	-327.66
	42	0.086	-2.61266E-001	-4.56896E-006	0.00000E+000	-2.62150E-001	1.41609E-003	7	...........	-327.66
	43	0.088	-2.71241E-001	-4.60915E-006	0.00000E+000	-2.72150E-001	1.41091E-003	7	...........	-327.66
	44	0.09	-2.81301E-001	-4.64930E-006	0.00000E+000	-2.82150E-001	1.43333E-003	7	...........	-327.66
	45	0.092	-2.91221E-001	-4.68803E-006	0.00000E+000	-2.92150E-001	1.39712E-003	7	...........	-327.66
	46	0.094	-3.01283E-001	-4.72667E-006	0.00000E+000	-3.02150E-001	1.43850E-003	7	...........	-327.66
	47	0.096	-3.11305E-001	-4.76371E-006	0.00000E+000	-3.12150E-001	1.37643E-003	7	...........	-327.66
	48	0.098	-3.21268E-001	-4.79952E-006	0.00000E+000	-3.22150E-001	1.39022E-003	7	...........	-327.66
	49	0.1	-3.31280E-001	-4.83217E-006	0.00000E+000	-3.32150E-001	1.38678E-003	7	...........	-327.66
	50	0.102	-3.41302E-001	-4.86543E-006	0.00000E+000	-3.42150E-001	1.40574E-003	7	...........	-327.66
	51	0.104	-3.51292E-001	-4.89669E-006	0.00000E+000	-3.52150E-001	1.44712E-003	7	...........	-327.66
	52	0.106	-3.61304E-001	-4.92513E-006	0.00000E+000	-3.62150E-001	1.42988E-003	7	...........	-327.66
	53	0.108	-3.71241E-001	-4.95448E-006	0.00000E+000	-3.72150E-001	1.38850E-003	7	...........	-327.66
	54	0.11	-3.81295E-001	-4.97898E-006	0.00000E+000	-3.82150E-001	1.41091E-003	7	...........	-327.66
	55	0.112	-3.91288E-001	-5.00450E-006	0.00000E+000	-3.92150E-001	1.47471E-003	7	...........	-327.66
	56	0.114	-4.01304E-001	-5.02730E-006	0.00000E+000	-4.02150E-001	1.44195E-003	7	...........	-327.66
	57	0.116	-4.11239E-001	-5.04685E-006	0.00000E+000	-4.12150E-001	1.37298E-003	7	...........	-327.66
	58	0.118	-4.21282E-001	-5.06625E-006	0.00000E+000	-4.22150E-001	1.40229E-003	7	...........	-327.66
	59	0.12	-4.31284E-001	-5.08294E-006	0.00000E+000	-4.32150E-001	1.43160E-003	7	...........	-327.66
	60	0.122	-4.41276E-001	-5.09850E-006	0.00000E+000	-4.42150E-001	1.43333E-003	7	...........	-327.66
	61	0.124	-4.51236E-001	-5.11089E-006	0.00000E+000	-4.52150E-001	1.41264E-003	7	...........	-327.66
	62	0.126	-4.61270E-001	-5.12241E-006	0.00000E+000	-4.62150E-001	1.40402E-003	7	...........	-327.66
	63	0.128	-4.71201E-001	-5.13155E-006	0.00000E+000	-4.72150E-001	1.44195E-003	7	...........	-327.66
	64	0.13	-4.81257E-001	-5.13993E-006	0.00000E+000	-4.82150E-001	1.46953E-003	7	...........	-327.66
	65	0.132	-4.91232E-001	-5.14505E-006	0.00000E+000	-4.92150E-001	1.45574E-003	7	...........	-327.66
	66	0.134	-5.01236E-001	-5.14895E-006	0.00000E+000	-5.02150E-001	1.37471E-003	7	...........	-327.66
	67	0.136	-5.11287E-001	-5.15114E-006	0.00000E+000	-5.12150E-001	1.42298E-003	7	...........	-327.66
	68	0.138	-5.21280E-001	-5.15045E-006	0.00000E+000	-5.22150E-001	1.44195E-003	7	...........	-327.66
	69	0.14	-5.31251E-001	-5.14743E-006	0.00000E+000	-5.32150E-001	1.44367E-003	7	...........	-327.66
	70	0.142	-5.41292E-001	-5.13957E-006	0.00000E+000	-5.42150E-001	1.42988E-003	7	...........	-327.66
	71	0.144	-5.51247E-001	-5.12978E-006	0.00000E+000	-5.52150E-001	1.41436E-003	7	...........	-327.66
	72	0.146	-5.61262E-001	-5.11345E-006	0.00000E+000	-5.62150E-001	1.43505E-003	7	...........	-327.66
	73	0.148	-5.71236E-001	-5.09320E-006	0.00000E+000	-5.72150E-001	1.46436E-003	7	...........	-327.66
	74	0.15	-5.81229E-001	-5.06589E-006	0.00000E+000	-5.82150E-001	1.41264E-003	7	...........	-327.66
	75	0.152	-5.91293E-001	-5.03169E-006	0.00000E+000	-5.92150E-001	1.40747E-003	7	...........	-327.66
	76	0.154	-6.01224E-001	-4.98817E-006	0.00000E+000	-6.02150E-001	1.40574E-003	7	...........	-327.66
	77	0.156	-6.11261E-001	-4.93423E-006	0.00000E+000	-6.12150E-001	1.44022E-003	7	...........	-327.66
	78	0.158	-6.21228E-001	-4.86871E-006	0.00000E+000	-6.22150E-001	1.42126E-003	7	...........	-327.66
	79	0.16	-6.31208E-001	-4.79006E-006	0.00000E+000	-6.32150E-001	1.46781E-003	7	...........	-327.66
	80	0.162	-6.41238E-001	-4.69855E-006	0.00000E+000	-6.42150E-001	1.44884E-003	7	...........	-327.66
	81	0.164	-6.51164E-001	-4.59248E-006	0.00000E+000	-6.52150E-001	1.40747E-003	7	...........	-327.66
	82	0.166	-6.61242E-001	-4.47003E-006	0.00000E+000	-6.62150E-001	1.38333E-003	7	...........	-327.66
	83	0.168	-6.71234E-001	-4.33291E-006	0.00000E+000	-6.72150E-001	1.43850E-003	7	...........	-327.66
	84	0.17	-6.81206E-001	-4.17828E-006	0.00000E+000	-6.82150E-001	1.42126E-003	7	...........	-327.66
	85	0.172	-6.91238E-001	-4.01083E-006	0.00000E+000	-6.92150E-001	1.47815E-003	7	...........	-327.66
	86	0.174	-7.01198E-001	-3.83039E-006	0.00000E+000	-7.02150E-001	1.48333E-003	7	...........	-327.66
	87	0.176	-7.11247E-001	-3.64302E-006	0.00000E+000	-7.12150E-001	1.51091E-003	7	...........	-327.66
	88	0.178	-7.21275E-001	-3.44512E-006	0.00000E+000	-7.22150E-001	1.42988E-003	7	...........	-327.66
	89	0.18	-7.31198E-001	-3.24295E-006	0.00000E+000	-7.32150E-001	1.44712E-003	7	...........	-327.66
	90	0.182	-7.41290E-001	-3.03787E-006	0.00000E+000	-7.42150E-001	1.37126E-003	7	...........	-327.66
	91	0.184	-7.51248E-001	-2.83472E-006	0.00000E+000	-7.52150E-001	1.44540E-003	7	...........	-327.66
	92	0.186	-7.61257E-001	-2.63595E-006	0.00000E+000	-7.62150E-001	1.46609E-003	7	...........	-327.66
	93	0.188	-7.71250E-001	-2.44605E-006	0.00000E+000	-7.72150E-001	1.44195E-003	7	...........	-327.66
	94	0.19	-7.81207E-001	-2.26325E-006	0.00000E+000	-7.82150E-001	1.46609E-003	7	...........	-327.66
	95	0.192	-7.91253E-001	-2.08681E-006	0.00000E+000	-7.92150E-001	1.40919E-003	7	...........	-327.66
	96	0.194	-8.01252E-001	-1.92748E-006	0.00000E+000	-8.02150E-001	1.43160E-003	7	...........	-327.66
	97	0.196	-8.11228E-001	-1.78304E-006	0.00000E+000	-8.12150E-001	1.43160E-003	7	...........	-327.66
	98	0.198	-8.21279E-001	-1.65463E-006	0.00000E+000	-8.22150E-001	1.37471E-003	7	...........	-327.66
	99	0.2	-8.31228E-001	-1.53560E-006	0.00000E+000	-8.32150E-001	1.41091E-003	7	...........	-327.66
	100	0.202	-8.41262E-001	-1.42825E-006	0.00000E+000	-8.42150E-001	1.41436E-003	7	...........	-327.66
	101	0.204	-8.51230E-001	-1.34085E-006	0.00000E+000	-8.52150E-001	1.40747E-003	7	...........	-327.66
	102	0.206	-8.61260E-001	-1.26123E-006	0.00000E+000	-8.62150E-001	1.40919E-003	7	...........	-327.66
	103	0.208	-8.71294E-001	-1.19124E-006	0.00000E+000	-8.72150E-001	1.39367E-003	7	...........	-327.66
	104	0.21	-8.81217E-001	-1.12551E-006	0.00000E+000	-8.82150E-001	1.42643E-003	7	...........	-327.66
	105	0.212	-8.91231E-001	-1.06850E-006	0.00000E+000	-8.92150E-001	1.40229E-003	7	...........	-327.66
	106	0.214	-9.01271E-001	-1.01716E-006	0.00000E+000	-9.02150E-001	1.46436E-003	7	...........	-327.66
	107	0.216	-8.92823E-001	-8.95992E-007	0.00000E+000	-8.92150E-001	1.50057E-003	7	...........	-327.66
	108	0.218	-8.82741E-001	-8.09550E-007	0.00000E+000	-8.82150E-001	1.49540E-003	7	...........	-327.66
	109	0.22	-8.72846E-001	-7.41902E-007	0.00000E+000	-8.72150E-001	1.51091E-003	7	...........	-327.66
	110	0.222	-8.62812E-001	-6.88447E-007	0.00000E+000	-8.62150E-001	1.44712E-003	7	...........	-327.66
	111	0.224	-8.52805E-001	-6.42165E-007	0.00000E+000	-8.52150E-001	1.42643E-003	7	...........	-327.66
	112	0.226	-8.42813E-001	-6.00383E-007	0.00000E+000	-8.42150E-001	1.42471E-003	7	...........	-327.66
	113	0.228	-8.32816E-001	-5.63119E-007	0.00000E+000	-8.32150E-001	1.44367E-003	7	...........	-327.66
	114	0.23	-8.22840E-001	-5.25804E-007	0.00000E+000	-8.22150E-001	1.37815E-003	7	...........	-327.66
	115	0.232	-8.12773E-001	-4.88954E-007	0.00000E+000	-8.12150E-001	1.42471E-003	7	...........	-327.66
	116	0.234	-8.02822E-001	-4.54622E-007	0.00000E+000	-8.02150E-001	1.40229E-003	7	...........	-327.66
	117	0.236	-7.92810E-001	-4.20635E-007	0.00000E+000	-7.92150E-001	1.47126E-003	7	...........	-327.66
	118	0.238	-7.82780E-001	-3.84026E-007	0.00000E+000	-7.82150E-001	1.46091E-003	7	...........	-327.66
	119	0.24	-7.72774E-001	-3.45193E-007	0.00000E+000	-7.72150E-001	1.42988E-003	7	...........	-327.66
	120	0.242	-7.62798E-001	-3.06153E-007	0.00000E+000	-7.62150E-001	1.45057E-003	7	...........	-327.66
	121	0.244	-7.52846E-001	-2.61871E-007	0.00000E+000	-7.52150E-001	1.45057E-003	7	...........	-327.66
	122	0.246	-7.42886E-001	-2.14969E-007	0.00000E+000	-7.42150E-001	1.41091E-003	7	...........	-327.66
	123	0.248	-7.32823E-001	-1.65393E-007	0.00000E+000	-7.32150E-001	1.46781E-003	7	...........	-327.66
	124	0.25	-7.22855E-001	-1.10437E-007	0.00000E+000	-7.22150E-001	1.41953E-003	7	...........	-327.66
	125	0.252	-7.12842E-001	-5.04289E-008	0.00000E+000	-7.12150E-001	1.46953E-003	7	...........	-327.66
	126	0.254	-7.02789E-001	1.65975E-008	0.00000E+000	-7.02150E-001	1.41091E-003	7	...........	-327.66
	127	0.256	-6.92805E-001	8.93143E-008	0.00000E+000	-6.92150E-001	1.45229E-003	7	...........	-327.66
	128	0.258	-6.82852E-001	1.70550E-007	0.00000E+000	-6.82150E-001	1.46781E-003	7	...........	-327.66
	129	0.26	-6.72846E-001	2.61148E-007	0.00000E+000	-6.72150E-001	1.40057E-003	7	...........	-327.66
	130	0.262	-6.62846E-001	3.61869E-007	0.00000E+000	-6.62150E-001	1.40402E-003	7	...........	-327.66
	131	0.264	-6.52805E-001	4.72832E-007	0.00000E+000	-6.52150E-001	1.43678E-003	7	...........	-327.66
	132	0.266	-6.42874E-001	5.95780E-007	0.00000E+000	-6.42150E-001	1.43160E-003	7	...........	-327.66
	133	0.268	-6.32871E-001	7.33230E-007	0.00000E+000	-6.32150E-001	1.42643E-003	7	...........	-327.66
	134	0.27	-6.22838E-001	8.86388E-007	0.00000E+000	-6.22150E-001	1.46264E-003	7	...........	-327.66
	135	0.272	-6.12849E-001	1.05748E-006	0.00000E+000	-6.12150E-001	1.44022E-003	7	...........	-327.66
	136	0.274	-6.02890E-001	1.24594E-006	0.00000E+000	-6.02150E-001	1.42988E-003	7	...........	-327.66
	137	0.276	-5.92869E-001	1.45585E-006	0.00000E+000	-5.92150E-001	1.47815E-003	7	...........	-327.66
	138	0.278	-5.82866E-001	1.68567E-006	0.00000E+000	-5.82150E-001	1.42126E-003	7	...........	-327.66
	139	0.28	-5.72861E-001	1.93796E-006	0.00000E+000	-5.72150E-001	1.43333E-003	7	...........	-327.66
	140	0.282	-5.62927E-001	2.21379E-006	0.00000E+000	-5.62150E-001	1.44540E-003	7	...........	-327.66
	141	0.284	-5.52861E-001	2.51364E-006	0.00000E+000	-5.52150E-001	1.39884E-003	7	...........	-327.66
	142	0.286	-5.42883E-001	2.83264E-006	0.00000E+000	-5.42150E-001	1.43333E-003	7	...........	-327.66
	143	0.288	-5.32867E-001	3.17467E-006	0.00000E+000	-5.32150E-001	1.40402E-003	7	...........	-327.66
	144	0.29	-5.22918E-001	3.53142E-006	0.00000E+000	-5.22150E-001	1.42643E-003	7	...........	-327.66
	145	0.292	-5.12923E-001	3.89770E-006	0.00000E+000	-5.12150E-001	1.43333E-003	7	...........	-327.66
	146	0.294	-5.02910E-001	4.26087E-006	0.00000E+000	-5.02150E-001	1.41264E-003	7	...........	-327.66
	147	0.296	-4.92869E-001	4.60415E-006	0.00000E+000	-4.92150E-001	1.45057E-003	7	...........	-327.66
	148	0.298	-4.82892E-001	4.91376E-006	0.00000E+000	-4.82150E-001	1.44884E-003	7	...........	-327.66
	149	0.3	-4.72836E-001	5.17573E-006	0.00000E+000	-4.72150E-001	1.43505E-003	7	...........	-327.66
	150	0.302	-4.62905E-001	5.37629E-006	0.00000E+000	-4.62150E-001	1.44367E-003	7	...........	-327.66
	151	0.304	-4.52861E-001	5.51097E-006	0.00000E+000	-4.52150E-001	1.40747E-003	7	...........	-327.66
	152	0.306	-4.42908E-001	5.57699E-006	0.00000E+000	-4.42150E-001	1.45747E-003	7	...........	-327.66
	153	0.308	-4.32907E-001	5.58320E-006	0.00000E+000	-4.32150E-001	1.47988E-003	7	...........	-327.66
	154	0.31	-4.22874E-001	5.54373E-006	0.00000E+000	-4.22150E-001	1.46091E-003	7	...........	-327.66
	155	0.312	-4.12856E-001	5.47172E-006	0.00000E+000	-4.12150E-001	1.47126E-003	7	...........	-327.66
	156	0.314	-4.02946E-001	5.37859E-006	0.00000E+000	-4.02150E-001	1.39367E-003	7	...........	-327.66
	157	0.316	-3.92950E-001	5.27533E-006	0.00000E+000	-3.92150E-001	1.41781E-003	7	...........	-327.66
	158	0.318	-3.82930E-001	5.17194E-006	0.00000E+000	-3.82150E-001	1.47298E-003	7	...........	-327.66
	159	0.32	-3.72850E-001	5.07198E-006	0.00000E+000	-3.72150E-001	1.45402E-003	7	...........	-327.66
	160	0.322	-3.62924E-001	4.97958E-006	0.00000E+000	-3.62150E-001	1.38505E-003	7	...........	-327.66
	161	0.324	-3.52939E-001	4.89692E-006	0.00000E+000	-3.52150E-001	1.37126E-003	7	...........	-327.66
	162	0.326	-3.42955E-001	4.82448E-006	0.00000E+000	-3.42150E-001	1.39367E-003	7	...........	-327.66
	163	0.328	-3.32905E-001	4.76186E-006	0.00000E+000	-3.32150E-001	1.40402E-003	7	...........	-327.66
	164	0.33	-3.22888E-001	4.70750E-006	0.00000E+000	-3.22150E-001	1.38505E-003	7	...........	-327.66
	165	0.332	-3.12921E-001	4.66128E-006	0.00000E+000	-3.12150E-001	1.42298E-003	7	...........	-327.66
	166	0.334	-3.02945E-001	4.62110E-006	0.00000E+000	-3.02150E-001	1.40747E-003	7	...........	-327.66
	167	0.336	-2.92862E-001	4.58803E-006	0.00000E+000	-2.92150E-001	1.39195E-003	7	...........	-327.66
	168	0.338	-2.82935E-001	4.55966E-006	0.00000E+000	-2.82150E-001	1.40229E-003	7	...........	-327.66
	169	0.34	-2.72904E-001	4.53476E-006	0.00000E+000	-2.72150E-001	1.38505E-003	7	...........	-327.66
	170	0.342	-2.62915E-001	4.51447E-006	0.00000E+000	-2.62150E-001	1.39540E-003	7	...........	-327.66
	171	0.344	-2.52887E-001	4.49759E-006	0.00000E+000	-2.52150E-001	1.39712E-003	7	...........	-327.66
	172	0.346	-2.42896E-001	4.48121E-006	0.00000E+000	-2.42150E-001	1.38160E-003	7	...........	-327.66
	173	0.348	-2.32926E-001	4.46650E-006	0.00000E+000	-2.32150E-001	1.46781E-003	7	...........	-327.66
	174	0.35	-2.22910E-001	4.45551E-006	0.00000E+000	-2.22150E-001	1.42298E-003	7	...........	-327.66
	175	0.352	-2.12865E-001	4.44318E-006	0.00000E+000	-2.12150E-001	1.48505E-003	7	...........	-327.66
	176	0.354	-2.02963E-001	4.43329E-006	0.00000E+000	-2.02150E-001	1.46609E-003	7	...........	-327.66
	177	0.356	-1.92940E-001	4.42444E-006	0.00000E+000	-1.92150E-001	1.42471E-003	7	...........	-327.66
	178	0.358	-1.82935E-001	4.41689E-006	0.00000E+000	-1.82150E-001	1.37471E-003	7	...........	-327.66
	179	0.36	-1.72928E-001	4.40794E-006	0.00000E+000	-1.72150E-001	1.41091E-003	7	...........	-327.66
	180	0.362	-1.62967E-001	4.40059E-006	0.00000E+000	-1.62150E-001	1.50747E-003	7	...........	-327.66
	181	0.364	-1.52956E-001	4.39411E-006	0.00000E+000	-1.52150E-001	1.43505E-003	7	...........	-327.66
	182	0.366	-1.42944E-001	4.38781E-006	0.00000E+000	-1.42150E-001	1.42471E-003	7	...........	-327.66
	183	0.368	-1.32928E-001	4.38157E-006	0.00000E+000	-1.32150E-001	1.46091E-003	7	...........	-327.66
	184	0.37	-1.22973E-001	4.37576E-006	0.00000E+000	-1.22150E-001	1.40919E-003	7	...........	-327.66
	185	0.372	-1.12914E-001	4.37228E-006	0.00000E+000	-1.12150E-001	1.37126E-003	7	...........	-327.66
	186	0.374	-1.02961E-001	4.36686E-006	0.00000E+000	-1.02150E-001	1.37126E-003	7	...........	-327.66
	187	0.376	-9.29158E-002	4.36288E-006	0.00000E+000	-9.21500E-002	1.46264E-003	7	...........	-327.66
	188	0.378	-8.29684E-002	4.35798E-006	0.00000E+000	-8.21500E-002	1.45574E-003	7	...........	-327.66
	189	0.38	-7.29511E-002	4.35226E-006	0.00000E+000	-7.21500E-002	1.46264E-003	7	...........	-327.66
	190	0.382	-6.29098E-002	4.34881E-006	0.00000E+000	-6.21500E-002	1.48678E-003	7	...........	-327.66
	191	0.384	-5.28934E-002	4.34270E-006	0.00000E+000	-5.21500E-002	1.46609E-003	7	...........	-327.66
	192	0.386	-4.29313E-002	4.33829E-006	0.00000E+000	-4.21500E-002	1.49884E-003	7	...........	-327.66
	193	0.388	-3.29313E-002	4.33219E-006	0.00000E+000	-3.21500E-002	1.44712E-003	7	...........	-327.66
	194	0.39	-2.29391E-002	4.32643E-006	0.00000E+000	-2.21500E-002	1.47298E-003	7	...........	-327.66
	195	0.392	-1.29072E-002	4.31953E-006	0.00000E+000	-1.21500E-002	1.43678E-003	7	...........	-327.66
	196	0.394	-2.97959E-003	4.31273E-006	0.00000E+000	-2.15001E-003	1.43505E-003	7	...........	-327.66
	197	0.396	7.06610E-003	4.30511E-006	0.00000E+000	7.84999E-003	1.39195E-003	7	...........	-327.66
	198	0.398	1.70704E-002	4.29735E-006	0.00000E+000	1.78500E-002	1.41953E-003	7	...........	-327.66
	199	0.4	2.71092E-002	4.28942E-006	0.00000E+000	2.78500E-002	1.38850E-003	7	...........	-327.66
	200	0.402	3.70902E-002	4.27954E-006	0.00000E+000	3.78500E-002	1.48505E-003	7	...........	-327.66
	201	0.404	4.70833E-002	4.27163E-006	0.00000E+000	4.78500E-002	1.37126E-003	7	...........	-327.66
	202	0.406	5.70773E-002	4.26104E-006	0.00000E+000	5.78500E-002	1.41091E-003	7	...........	-327.66
	203	0.408	6.70894E-002	4.25061E-006	0.00000E+000	6.78500E-002	1.38160E-003	7	...........	-327.66
	204	0.41	7.70644E-002	4.24000E-006	0.00000E+000	7.78500E-002	1.43850E-003	7	...........	-327.66
	205	0.412	8.70532E-002	4.22919E-006	0.00000E+000	8.78500E-002	1.43333E-003	7	...........	-327.66
	206	0.414	9.70739E-002	4.21820E-006	0.00000E+000	9.78500E-002	1.49367E-003	7	...........	-327.66
	207	0.416	1.07091E-001	4.20562E-006	0.00000E+000	1.07850E-001	1.47471E-003	7	...........	-327.66
	208	0.418	1.17061E-001	4.19324E-006	0.00000E+000	1.17850E-001	1.40057E-003	7	...........	-327.66
	209	0.42	1.27092E-001	4.18116E-006	0.00000E+000	1.27850E-001	1.40574E-003	7	...........	-327.66
	210	0.422	1.37094E-001	4.16940E-006	0.00000E+000	1.37850E-001	1.43160E-003	7	...........	-327.66
	211	0.424	1.47129E-001	4.15747E-006	0.00000E+000	1.47850E-001	1.41609E-003	7	...........	-327.66
	212	0.426	1.57057E-001	4.14471E-006	0.00000E+000	1.57850E-001	1.39540E-003	7	...........	-327.66
	213	0.428	1.67096E-001	4.13362E-006	0.00000E+000	1.67850E-001	1.43333E-003	7	...........	-327.66
	214	0.43	1.77098E-001	4.12073E-006	0.00000E+000	1.77850E-001	1.40057E-003	7	...........	-327.66
	215	0.432	1.87132E-001	4.10824E-006	0.00000E+000	1.87850E-001	1.47815E-003	7	...........	-327.66
	216	0.434	1.97070E-001	4.09512E-006	0.00000E+000	1.97850E-001	1.45229E-003	7	...........	-327.66
	217	0.436	2.07054E-001	4.08420E-006	0.00000E+000	2.07850E-001	1.42988E-003	7	...........	-327.66
	218	0.438	2.17058E-001	4.07210E-006	0.00000E+000	2.17850E-001	1.40402E-003	7	...........	-327.66
	219	0.44	2.27101E-001	4.06105E-006	0.00000E+000	2.27850E-001	1.36781E-003	7	...........	-327.66
	220	0.442	2.37041E-001	4.04982E-006	0.00000E+000	2.37850E-001	1.49367E-003	7	...........	-327.66
	221	0.444	2.47043E-001	4.03896E-006	0.00000E+000	2.47850E-001	1.45919E-003	7	...........	-327.66
	222	0.446	2.57056E-001	4.02887E-006	0.00000E+000	2.57850E-001	1.45057E-003	7	...........	-327.66
	223	0.448	2.67083E-001	4.01761E-006	0.00000E+000	2.67850E-001	1.43850E-003	7	...........	-327.66
	224	0.45	2.77001E-001	4.00869E-006	0.00000E+000	2.77850E-001	1.42643E-003	7	...........	-327.66
	225	0.452	2.87021E-001	3.99997E-006	0.00000E+000	2.87850E-001	1.44022E-003	7	...........	-327.66
	226	0.454	2.97032E-001	3.99269E-006	0.00000E+000	2.97850E-001	1.49367E-003	7	...........	-327.66
	227	0.456	3.07095E-001	3.98547E-006	0.00000E+000	3.07850E-001	1.43678E-003	7	...........	-327.66
	228	0.458	3.17034E-001	3.97850E-006	0.00000E+000	3.17850E-001	1.44712E-003	7	...........	-327.66
	229	0.46	3.27049E-001	3.97390E-006	0.00000E+000	3.27850E-001	1.47643E-003	7	...........	-327.66
	230	0.462	3.37027E-001	3.96905E-006	0.00000E+000	3.37850E-001	1.44540E-003	7	...........	-327.66
	231	0.464	3.47124E-001	3.96584E-006	0.00000E+000	3.47850E-001	1.52643E-003	7	...........	-327.66
	232	0.466	3.57026E-001	3.96408E-006	0.00000E+000	3.57850E-001	1.40402E-003	7	...........	-327.66
	233	0.468	3.67041E-001	3.96203E-006	0.00000E+000	3.67850E-001	1.41953E-003	7	...........	-327.66
	234	0.47	3.77064E-001	3.96293E-006	0.00000E+000	3.77850E-001	1.41953E-003	7	...........	-327.66
	235	0.472	3.87057E-001	3.96503E-006	0.00000E+000	3.87850E-001	1.50057E-003	7	...........	-327.66
	236	0.474	3.97042E-001	3.96800E-006	0.00000E+000	3.97850E-001	1.49884E-003	7	...........	-327.66
	237	0.476	4.07044E-001	3.97203E-006	0.00000E+000	4.07850E-001	1.45229E-003	7	...........	-327.66
	238	0.478	4.17019E-001	3.97905E-006	0.00000E+000	4.17850E-001	1.47126E-003	7	...........	-327.66
	239	0.48	4.27086E-001	3.98521E-006	0.00000E+000	4.27850E-001	1.41953E-003	7	...........	-327.66
	240	0.482	4.36983E-001	3.99347E-006	0.00000E+000	4.37850E-001	1.47298E-003	7	...........	-327.66
	241	0.484	4.47050E-001	4.00486E-006	0.00000E+000	4.47850E-001	1.47815E-003	7	...........	-327.66
	242	0.486	4.57032E-001	4.01631E-006	0.00000E+000	4.57850E-001	1.41781E-003	7	...........	-327.66
	243	0.488	4.67045E-001	4.02987E-006	0.00000E+000	4.67850E-001	1.41609E-003	7	...........	-327.66
	244	0.49	4.77008E-001	4.04482E-006	0.00000E+000	4.77850E-001	1.45747E-003	7	...........	-327.66
	245	0.492	4.86998E-001	4.06251E-006	0.00000E+000	4.87850E-001	1.41609E-003	7	...........	-327.66
	246	0.494	4.97010E-001	4.08131E-006	0.00000E+000	4.97850E-001	1.42815E-003	7	...........	-327.66
	247	0.496	5.07038E-001	4.10159E-006	0.00000E+000	5.07850E-001	1.41781E-003	7	...........	-327.66
	248	0.498	5.17000E-001	4.12379E-006	0.00000E+000	5.17850E-001	1.45574E-003	7	...........	-327.66
	249	0.5	5.27073E-001	4.14823E-006	0.00000E+000	5.27850E-001	1.44712E-003	7	...........	-327.66
	250	0.502	5.37020E-001	4.17318E-006	0.00000E+000	5.37850E-001	1.43333E-003	7	...........	-327.66
	251	0.504	5.47055E-001	4.20103E-006	0.00000E+000	5.47850E-001	1.42126E-003	7	...........	-327.66
	252	0.506	5.57018E-001	4.22940E-006	0.00000E+000	5.57850E-001	1.46953E-003	7	...........	-327.66
	253	0.508	5.66973E-001	4.26043E-006	0.00000E+000	5.67850E-001	1.42988E-003	7	...........	-327.66
	254	0.51	5.77015E-001	4.29416E-006	0.00000E+000	5.77850E-001	1.44367E-003	7	...........	-327.66
	255	0.512	5.87054E-001	4.32779E-006	0.00000E+000	5.87850E-001	1.41609E-003	7	...........	-327.66
	256	0.514	5.97013E-001	4.36271E-006	0.00000E+000	5.97850E-001	1.42126E-003	7	...........	-327.66
CURVE2	TABLE
	Pt	T	Vf	Im	Vu	Sig	Ach	IERange	Over	Temp
	#	s	V vs. Ref.	A	V	V	V	#	bits	deg C
	257	0.516	5.90582E-001	3.07200E-006	0.00000E+000	5.90000E-001	1.45747E-003	7	...........	-327.66
	258	0.518	5.80766E-001	2.20526E-006	0.00000E+000	5.80000E-001	1.44195E-003	7	...........	-327.66
	259	0.52	5.70762E-001	1.59840E-006	0.00000E+000	5.70000E-001	1.47988E-003	7	...........	-327.66
	260	0.522	5.60776E-001	1.10700E-006	0.00000E+000	5.60000E-001	1.49022E-003	7	...........	-327.66
	261	0.524	5.50783E-001	6.89068E-007	0.00000E+000	5.50000E-001	1.48505E-003	7	...........	-327.66
	262	0.526	5.40762E-001	3.22812E-007	0.00000E+000	5.40000E-001	1.42298E-003	7	...........	-327.66
	263	0.528	5.30764E-001	-4.61229E-009	0.00000E+000	5.30000E-001	1.43678E-003	7	...........	-327.66
	264	0.53	5.20754E-001	-2.99877E-007	0.00000E+000	5.20000E-001	1.40747E-003	7	...........	-327.66
	265	0.532	5.10764E-001	-5.65292E-007	0.00000E+000	5.10000E-001	1.47471E-003	7	...........	-327.66
	266	0.534	5.00808E-001	-8.06601E-007	0.00000E+000	5.00000E-001	1.41609E-003	7	...........	-327.66
	267	0.536	4.90769E-001	-1.02710E-006	0.00000E+000	4.90000E-001	1.45402E-003	7	...........	-327.66
	268	0.538	4.80757E-001	-1.22883E-006	0.00000E+000	4.80000E-001	1.38678E-003	7	...........	-327.66
	269	0.54	4.70792E-001	-1.41237E-006	0.00000E+000	4.70000E-001	1.38505E-003	7	...........	-327.66
	270	0.542	4.60773E-001	-1.58131E-006	0.00000E+000	4.60000E-001	1.42126E-003	7	...........	-327.66
	271	0.544	4.50850E-001	-1.73714E-006	0.00000E+000	4.50000E-001	1.43505E-003	7	...........	-327.66
	272	0.546	4.40757E-001	-1.88101E-006	0.00000E+000	4.40000E-001	1.38850E-003	7	...........	-327.66
	273	0.548	4.30770E-001	-2.01235E-006	0.00000E+000	4.30000E-001	1.39022E-003	7	...........	-327.66
	274	0.55	4.20823E-001	-2.13559E-006	0.00000E+000	4.20000E-001	1.35574E-003	7	...........	-327.66
	275	0.552	4.10778E-001	-2.24871E-006	0.00000E+000	4.10000E-001	1.36609E-003	7	...........	-327.66
	276	0.554	4.00787E-001	-2.35535E-006	0.00000E+000	4.00000E-001	1.39712E-003	7	...........	-327.66
	277	0.556	3.90786E-001	-2.45357E-006	0.00000E+000	3.90000E-001	1.39367E-003	7	...........	-327.66
	278	0.558	3.80803E-001	-2.54413E-006	0.00000E+000	3.80000E-001	1.47643E-003	7	...........	-327.66
	279	0.56	3.70798E-001	-2.63111E-006	0.00000E+000	3.70000E-001	1.47298E-003	7	...........	-327.66
	280	0.562	3.60790E-001	-2.71165E-006	0.00000E+000	3.60000E-001	1.41781E-003	7	...........	-327.66
	281	0.564	3.50814E-001	-2.78823E-006	0.00000E+000	3.50000E-001	1.42126E-003	7	...........	-327.66
	282	0.566	3.40813E-001	-2.85988E-006	0.00000E+000	3.40000E-001	1.40402E-003	7	...........	-327.66
	283	0.568	3.30795E-001	-2.92753E-006	0.00000E+000	3.30000E-001	1.43333E-003	7	...........	-327.66
	284	0.57	3.20808E-001	-2.99343E-006	0.00000E+000	3.20000E-001	1.46609E-003	7	...........	-327.66
	285	0.572	3.10796E-001	-3.05455E-006	0.00000E+000	3.10000E-001	1.45919E-003	7	...........	-327.66
	286	0.574	3.00811E-001	-3.11400E-006	0.00000E+000	3.00000E-001	1.49022E-003	7	...........	-327.66
	287	0.576	2.90795E-001	-3.16882E-006	0.00000E+000	2.90000E-001	1.45574E-003	7	...........	-327.66
	288	0.578	2.80765E-001	-3.22215E-006	0.00000E+000	2.80000E-001	1.49884E-003	7	...........	-327.66
	289	0.58	2.70872E-001	-3.27461E-006	0.00000E+000	2.70000E-001	1.52988E-003	7	...........	-327.66
	290	0.582	2.60808E-001	-3.32534E-006	0.00000E+000	2.60000E-001	1.44367E-003	7	...........	-327.66
	291	0.584	2.50861E-001	-3.37212E-006	0.00000E+000	2.50000E-001	1.48678E-003	7	...........	-327.66
	292	0.586	2.40808E-001	-3.41939E-006	0.00000E+000	2.40000E-001	1.39712E-003	7	...........	-327.66
	293	0.588	2.30797E-001	-3.46560E-006	0.00000E+000	2.30000E-001	1.40747E-003	7	...........	-327.66
	294	0.59	2.20814E-001	-3.50807E-006	0.00000E+000	2.20000E-001	1.42988E-003	7	...........	-327.66
	295	0.592	2.10780E-001	-3.55125E-006	0.00000E+000	2.10000E-001	1.45229E-003	7	...........	-327.66
	296	0.594	2.00794E-001	-3.59260E-006	0.00000E+000	2.00000E-001	1.46436E-003	7	...........	-327.66
	297	0.596	1.90857E-001	-3.63287E-006	0.00000E+000	1.90000E-001	1.44540E-003	7	...........	-327.66
	298	0.598	1.80819E-001	-3.67232E-006	0.00000E+000	1.80000E-001	1.35402E-003	7	...........	-327.66
	299	0.6	1.70878E-001	-3.71057E-006	0.00000E+000	1.70000E-001	1.48160E-003	7	...........	-327.66
	300	0.602	1.60816E-001	-3.74812E-006	0.00000E+000	1.60000E-001	1.43333E-003	7	...........	-327.66
	301	0.604	1.50826E-001	-3.78413E-006	0.00000E+000	1.50000E-001	1.42298E-003	7	...........	-327.66
	302	0.606	1.40907E-001	-3.81913E-006	0.00000E+000	1.40000E-001	1.45402E-003	7	...........	-327.66
	303	0.608	1.30860E-001	-3.85300E-006	0.00000E+000	1.30000E-001	1.40747E-003	7	...........	-327.66
	304	0.61	1.20852E-001	-3.88744E-006	0.00000E+000	1.20000E-001	1.45747E-003	7	...........	-327.66
	305	0.612	1.10832E-001	-3.91885E-006	0.00000E+000	1.10000E-001	1.48505E-003	7	...........	-327.66
	306	0.614	1.00820E-001	-3.95113E-006	0.00000E+000	1.00000E-001	1.49540E-003	7	...........	-327.66
	307	0.616	9.08756E-002	-3.98207E-006	0.00000E+000	9.00000E-002	1.51436E-003	7	...........	-327.66
	308	0.618	8.08195E-002	-4.01180E-006	0.00000E+000	8.00000E-002	1.43505E-003	7	...........	-327.66
	309	0.62	7.08118E-002	-4.04192E-006	0.00000E+000	7.00000E-002	1.46609E-003	7	...........	-327.66
	310	0.622	6.08540E-002	-4.06930E-006	0.00000E+000	6.00000E-002	1.41609E-003	7	...........	-327.66
	311	0.624	5.08316E-002	-4.09708E-006	0.00000E+000	5.00000E-002	1.39540E-003	7	...........	-327.66
	312	0.626	4.08187E-002	-4.12393E-006	0.00000E+000	4.00000E-002	1.45402E-003	7	...........	-327.66
	313	0.628	3.08377E-002	-4.15056E-006	0.00000E+000	3.00000E-002	1.43850E-003	7	...........	-327.66
	314	0.63	2.08359E-002	-4.17706E-006	0.00000E+000	2.00000E-002	1.45747E-003	7	...........	-327.66
	315	0.632	1.08411E-002	-4.20156E-006	0.00000E+000	9.99999E-003	1.46781E-003	7	...........	-327.66
	316	0.634	8.16962E-004	-4.22603E-006	0.00000E+000	-1.49012E-008	1.46436E-003	7	...........	-327.66
	317	0.636	-9.12873E-003	-4.25160E-006	0.00000E+000	-1.00000E-002	1.48333E-003	7	...........	-327.66
	318	0.638	-1.91382E-002	-4.27388E-006	0.00000E+000	-2.00000E-002	1.50574E-003	7	...........	-327.66
	319	0.64	-2.91667E-002	-4.29635E-006	0.00000E+000	-3.00000E-002	1.45402E-003	7	...........	-327.66
	320	0.642	-3.91192E-002	-4.32001E-006	0.00000E+000	-4.00000E-002	1.50229E-003	7	...........	-327.66
	321	0.644	-4.92011E-002	-4.34119E-006	0.00000E+000	-5.00000E-002	1.48505E-003	7	...........	-327.66
	322	0.646	-5.91468E-002	-4.36414E-006	0.00000E+000	-6.00000E-002	1.47471E-003	7	...........	-327.66
	323	0.648	-6.91382E-002	-4.38457E-006	0.00000E+000	-7.00000E-002	1.33160E-003	7	...........	-327.66
	324	0.65	-7.91891E-002	-4.40402E-006	0.00000E+000	-8.00000E-002	1.42126E-003	7	...........	-327.66
	325	0.652	-8.91356E-002	-4.42442E-006	0.00000E+000	-9.00000E-002	1.38333E-003	7	...........	-327.66
	326	0.654	-9.91710E-002	-4.44518E-006	0.00000E+000	-1.00000E-001	1.42471E-003	7	...........	-327.66
	327	0.656	-1.09169E-001	-4.46438E-006	0.00000E+000	-1.10000E-001	1.49540E-003	7	...........	-327.66
	328	0.658	-1.19149E-001	-4.48217E-006	0.00000E+000	-1.20000E-001	1.47988E-003	7	...........	-327.66
	329	0.66	-1.29210E-001	-4.50023E-006	0.00000E+000	-1.30000E-001	1.40919E-003	7	...........	-327.66
	330	0.662	-1.39101E-001	-4.51793E-006	0.00000E+000	-1.40000E-001	1.42471E-003	7	...........	-327.66
	331	0.664	-1.49198E-001	-4.53490E-006	0.00000E+000	-1.50000E-001	1.41436E-003	7	...........	-327.66
	332	0.666	-1.59199E-001	-4.55128E-006	0.00000E+000	-1.60000E-001	1.45229E-003	7	...........	-327.66
	333	0.668	-1.69130E-001	-4.56604E-006	0.00000E+000	-1.70000E-001	1.44022E-003	7	...........	-327.66
	334	0.67	-1.79196E-001	-4.58222E-006	0.00000E+000	-1.80000E-001	1.51436E-003	7	...........	-327.66
	335	0.672	-1.89096E-001	-4.59632E-006	0.00000E+000	-1.90000E-001	1.42815E-003	7	...........	-327.66
	336	0.674	-1.99169E-001	-4.61076E-006	0.00000E+000	-2.00000E-001	1.48160E-003	7	...........	-327.66
	337	0.676	-2.09144E-001	-4.62286E-006	0.00000E+000	-2.10000E-001	1.42815E-003	7	...........	-327.66
	338	0.678	-2.19092E-001	-4.63498E-006	0.00000E+000	-2.20000E-001	1.51609E-003	7	...........	-327.66
	339	0.68	-2.29142E-001	-4.64654E-006	0.00000E+000	-2.30000E-001	1.47815E-003	7	...........	-327.66
	340	0.682	-2.39173E-001	-4.65623E-006	0.00000E+000	-2.40000E-001	1.44540E-003	7	...........	-327.66
	341	0.684	-2.49147E-001	-4.66751E-006	0.00000E+000	-2.50000E-001	1.40402E-003	7	...........	-327.66
	342	0.686	-2.59151E-001	-4.67563E-006	0.00000E+000	-2.60000E-001	1.47988E-003	7	...........	-327.66
	343	0.688	-2.69083E-001	-4.68291E-006	0.00000E+000	-2.70000E-001	1.42815E-003	7	...........	-327.66
	344	0.69	-2.79186E-001	-4.69022E-006	0.00000E+000	-2.80000E-001	1.38850E-003	7	...........	-327.66
	345	0.692	-2.89136E-001	-4.69582E-006	0.00000E+000	-2.90000E-001	1.45919E-003	7	...........	-327.66
	346	0.694	-2.99124E-001	-4.70113E-006	0.00000E+000	-3.00000E-001	1.39712E-003	7	...........	-327.66
	347	0.696	-3.09133E-001	-4.70491E-006	0.00000E+000	-3.10000E-001	1.45574E-003	7	...........	-327.66
	348	0.698	-3.19152E-001	-4.70862E-006	0.00000E+000	-3.20000E-001	1.40229E-003	7	...........	-327.66
	349	0.7	-3.29167E-001	-4.71051E-006	0.00000E+000	-3.30000E-001	1.45229E-003	7	...........	-327.66
	350	0.702	-3.39166E-001	-4.71353E-006	0.00000E+000	-3.40000E-001	1.49884E-003	7	...........	-327.66
	351	0.704	-3.49130E-001	-4.71413E-006	0.00000E+000	-3.50000E-001	1.43160E-003	7	...........	-327.66
	352	0.706	-3.59179E-001	-4.71437E-006	0.00000E+000	-3.60000E-001	1.41436E-003	7	...........	-327.66
	353	0.708	-3.69026E-001	-4.71432E-006	0.00000E+000	-3.70000E-001	1.48678E-003	7	...........	-327.66
	354	0.71	-3.79157E-001	-4.71418E-006	0.00000E+000	-3.80000E-001	1.40919E-003	7	...........	-327.66
	355	0.712	-3.89123E-001	-4.71220E-006	0.00000E+000	-3.90000E-001	1.43160E-003	7	...........	-327.66
	356	0.714	-3.99130E-001	-4.71053E-006	0.00000E+000	-4.00000E-001	1.46264E-003	7	...........	-327.66
	357	0.716	-4.09160E-001	-4.70786E-006	0.00000E+000	-4.10000E-001	1.44712E-003	7	...........	-327.66
	358	0.718	-4.19103E-001	-4.70475E-006	0.00000E+000	-4.20000E-001	1.40919E-003	7	...........	-327.66
	359	0.72	-4.29135E-001	-4.70246E-006	0.00000E+000	-4.30000E-001	1.43333E-003	7	...........	-327.66
	360	0.722	-4.39160E-001	-4.69761E-006	0.00000E+000	-4.40000E-001	1.47471E-003	7	...........	-327.66
	361	0.724	-4.49094E-001	-4.69279E-006	0.00000E+000	-4.50000E-001	1.45574E-003	7	...........	-327.66
	362	0.726	-4.59125E-001	-4.68887E-006	0.00000E+000	-4.60000E-001	1.38333E-003	7	...........	-327.66
	363	0.728	-4.69041E-001	-4.68441E-006	0.00000E+000	-4.70000E-001	1.39712E-003	7	...........	-327.66
	364	0.73	-4.79100E-001	-4.67868E-006	0.00000E+000	-4.80000E-001	1.44022E-003	7	...........	-327.66
	365	0.732	-4.89105E-001	-4.67228E-006	0.00000E+000	-4.90000E-001	1.42471E-003	7	...........	-327.66
	366	0.734	-4.99076E-001	-4.66504E-006	0.00000E+000	-5.00000E-001	1.41091E-003	7	...........	-327.66
	367	0.736	-5.09093E-001	-4.65682E-006	0.00000E+000	-5.10000E-001	1.42643E-003	7	...........	-327.66
	368	0.738	-5.19157E-001	-4.64619E-006	0.00000E+000	-5.20000E-001	1.44540E-003	7	...........	-327.66
	369	0.74	-5.29118E-001	-4.63300E-006	0.00000E+000	-5.30000E-001	1.42126E-003	7	...........	-327.66
	370	0.742	-5.39151E-001	-4.61810E-006	0.00000E+000	-5.40000E-001	1.44884E-003	7	...........	-327.66
	371	0.744	-5.49067E-001	-4.59815E-006	0.00000E+000	-5.50000E-001	1.46781E-003	7	...........	-327.66
	372	0.746	-5.59143E-001	-4.57530E-006	0.00000E+000	-5.60000E-001	1.39712E-003	7	...........	-327.66
	373	0.748	-5.69124E-001	-4.54725E-006	0.00000E+000	-5.70000E-001	1.41609E-003	7	...........	-327.66
	374	0.75	-5.79067E-001	-4.51216E-006	0.00000E+000	-5.80000E-001	1.44540E-003	7	...........	-327.66
	375	0.752	-5.89140E-001	-4.47136E-006	0.00000E+000	-5.90000E-001	1.41436E-003	7	...........	-327.66
[...]
	701	1.404	-8.49155E-001	-1.26630E-006	0.00000E+000	-8.50000E-001	1.45229E-003	7	...........	-327.66
	702	1.406	-8.59082E-001	-1.19595E-006	0.00000E+000	-8.60000E-001	1.39195E-003	7	...........	-327.66
	703	1.408	-8.69118E-001	-1.13446E-006	0.00000E+000	-8.70000E-001	1.40402E-003	7	...........	-327.66
	704	1.41	-8.79130E-001	-1.08090E-006	0.00000E+000	-8.80000E-001	1.38333E-003	7	...........	-327.66
	705	1.412	-8.89085E-001	-1.03324E-006	0.00000E+000	-8.90000E-001	1.42988E-003	7	...........	-327.66
	706	1.414	-8.99138E-001	-9.89005E-007	0.00000E+000	-9.00000E-001	1.41953E-003	7	...........	-327.66
	707	1.416	-8.90669E-001	-8.71627E-007	0.00000E+000	-8.90000E-001	1.46781E-003	7	...........	-327.66
	708	1.418	-8.80724E-001	-7.88305E-007	0.00000E+000	-8.80000E-001	1.38333E-003	7	...........	-327.66
	709	1.42	-8.70698E-001	-7.24021E-007	0.00000E+000	-8.70000E-001	1.53678E-003	7	...........	-327.66
	710	1.422	-8.60645E-001	-6.70755E-007	0.00000E+000	-8.60000E-001	1.44540E-003	7	...........	-327.66
	711	1.424	-8.50682E-001	-6.24645E-007	0.00000E+000	-8.50000E-001	1.40574E-003	7	...........	-327.66
	712	1.426	-8.40662E-001	-5.82984E-007	0.00000E+000	-8.40000E-001	1.46781E-003	7	...........	-327.66
	713	1.428	-8.30612E-001	-5.44272E-007	0.00000E+000	-8.30000E-001	1.47126E-003	7	...........	-327.66
	714	1.43	-8.20726E-001	-5.04784E-007	0.00000E+000	-8.20000E-001	1.49712E-003	7	...........	-327.66
	715	1.432	-8.10624E-001	-4.68124E-007	0.00000E+000	-8.10000E-001	1.44540E-003	7	...........	-327.66
	716	1.434	-8.00686E-001	-4.32188E-007	0.00000E+000	-8.00000E-001	1.47126E-003	7	...........	-327.66
	717	1.436	-7.90681E-001	-3.94407E-007	0.00000E+000	-7.90000E-001	1.43850E-003	7	...........	-327.66
	718	1.438	-7.80569E-001	-3.54746E-007	0.00000E+000	-7.80000E-001	1.40747E-003	7	...........	-327.66
	719	1.44	-7.70656E-001	-3.16724E-007	0.00000E+000	-7.70000E-001	1.44022E-003	7	...........	-327.66
	720	1.442	-7.60660E-001	-2.72252E-007	0.00000E+000	-7.60000E-001	1.39022E-003	7	...........	-327.66
	721	1.444	-7.50661E-001	-2.27056E-007	0.00000E+000	-7.50000E-001	1.45057E-003	7	...........	-327.66
	722	1.446	-7.40725E-001	-1.77446E-007	0.00000E+000	-7.40000E-001	1.41091E-003	7	...........	-327.66
	723	1.448	-7.30698E-001	-1.23197E-007	0.00000E+000	-7.30000E-001	1.46609E-003	7	...........	-327.66
	724	1.45	-7.20730E-001	-6.50861E-008	0.00000E+000	-7.20000E-001	1.43678E-003	7	...........	-327.66
	725	1.452	-7.10678E-001	1.02640E-009	0.00000E+000	-7.10000E-001	1.45402E-003	7	...........	-327.66
	726	1.454	-7.00694E-001	7.01048E-008	0.00000E+000	-7.00000E-001	1.50747E-003	7	...........	-327.66
	727	1.456	-6.90729E-001	1.50185E-007	0.00000E+000	-6.90000E-001	1.41091E-003	7	...........	-327.66
	728	1.458	-6.80732E-001	2.37248E-007	0.00000E+000	-6.80000E-001	1.40057E-003	7	...........	-327.66
	729	1.46	-6.70660E-001	3.33606E-007	0.00000E+000	-6.70000E-001	1.40747E-003	7	...........	-327.66
	730	1.462	-6.60726E-001	4.41224E-007	0.00000E+000	-6.60000E-001	1.41953E-003	7	...........	-327.66
	731	1.464	-6.50681E-001	5.60378E-007	0.00000E+000	-6.50000E-001	1.43850E-003	7	...........	-327.66
	732	1.466	-6.40723E-001	6.93690E-007	0.00000E+000	-6.40000E-001	1.39195E-003	7	...........	-327.66
	733	1.468	-6.30688E-001	8.41831E-007	0.00000E+000	-6.30000E-001	1.43160E-003	7	...........	-327.66
	734	1.47	-6.20721E-001	1.00535E-006	0.00000E+000	-6.20000E-001	1.51781E-003	7	...........	-327.66
	735	1.472	-6.10773E-001	1.18710E-006	0.00000E+000	-6.10000E-001	1.40057E-003	7	...........	-327.66
	736	1.474	-6.00733E-001	1.38944E-006	0.00000E+000	-6.00000E-001	1.42126E-003	7	...........	-327.66
	737	1.476	-5.90730E-001	1.61273E-006	0.00000E+000	-5.90000E-001	1.47126E-003	7	...........	-327.66
	738	1.478	-5.80724E-001	1.85807E-006	0.00000E+000	-5.80000E-001	1.46953E-003	7	...........	-327.66
	739	1.48	-5.70739E-001	2.12640E-006	0.00000E+000	-5.70000E-001	1.42126E-003	7	...........	-327.66
	740	1.482	-5.60768E-001	2.41820E-006	0.00000E+000	-5.60000E-001	1.41091E-003	7	...........	-327.66
	741	1.484	-5.50698E-001	2.73283E-006	0.00000E+000	-5.50000E-001	1.41091E-003	7	...........	-327.66
	742	1.486	-5.40753E-001	3.06919E-006	0.00000E+000	-5.40000E-001	1.43850E-003	7	...........	-327.66
	743	1.488	-5.30770E-001	3.42279E-006	0.00000E+000	-5.30000E-001	1.39884E-003	7	...........	-327.66
	744	1.49	-5.20775E-001	3.78642E-006	0.00000E+000	-5.20000E-001	1.36953E-003	7	...........	-327.66
	745	1.492	-5.10750E-001	4.15563E-006	0.00000E+000	-5.10000E-001	1.43160E-003	7	...........	-327.66
	746	1.494	-5.00696E-001	4.50804E-006	0.00000E+000	-5.00000E-001	1.48160E-003	7	...........	-327.66
	747	1.496	-4.90782E-001	4.83418E-006	0.00000E+000	-4.90000E-001	1.41264E-003	7	...........	-327.66
	748	1.498	-4.80766E-001	5.11274E-006	0.00000E+000	-4.80000E-001	1.36953E-003	7	...........	-327.66
	749	1.5	-4.70711E-001	5.33101E-006	0.00000E+000	-4.70000E-001	1.47471E-003	7	...........	-327.66
	750	1.502	-4.60767E-001	5.47763E-006	0.00000E+000	-4.60000E-001	1.47298E-003	7	...........	-327.66
	751	1.504	-4.50725E-001	5.55330E-006	0.00000E+000	-4.50000E-001	1.47988E-003	7	...........	-327.66
	752	1.506	-4.40776E-001	5.56535E-006	0.00000E+000	-4.40000E-001	1.47298E-003	7	...........	-327.66
	753	1.508	-4.30741E-001	5.52249E-006	0.00000E+000	-4.30000E-001	1.49712E-003	7	...........	-327.66
	754	1.51	-4.20749E-001	5.44173E-006	0.00000E+000	-4.20000E-001	1.47643E-003	7	...........	-327.66
	755	1.512	-4.10775E-001	5.33805E-006	0.00000E+000	-4.10000E-001	1.45919E-003	7	...........	-327.66
	756	1.514	-4.00768E-001	5.22300E-006	0.00000E+000	-4.00000E-001	1.43160E-003	7	...........	-327.66
	757	1.516	-3.90753E-001	5.10705E-006	0.00000E+000	-3.90000E-001	1.50574E-003	7	...........	-327.66
	758	1.518	-3.80790E-001	4.99650E-006	0.00000E+000	-3.80000E-001	1.49712E-003	7	...........	-327.66
	759	1.52	-3.70748E-001	4.89593E-006	0.00000E+000	-3.70000E-001	1.40057E-003	7	...........	-327.66
	760	1.522	-3.60792E-001	4.80503E-006	0.00000E+000	-3.60000E-001	1.39022E-003	7	...........	-327.66
	761	1.524	-3.50762E-001	4.72764E-006	0.00000E+000	-3.50000E-001	1.39367E-003	7	...........	-327.66
	762	1.526	-3.40776E-001	4.65916E-006	0.00000E+000	-3.40000E-001	1.40574E-003	7	...........	-327.66
	763	1.528	-3.30802E-001	4.60343E-006	0.00000E+000	-3.30000E-001	1.40574E-003	7	...........	-327.66
	764	1.53	-3.20768E-001	4.55516E-006	0.00000E+000	-3.20000E-001	1.49884E-003	7	...........	-327.66
	765	1.532	-3.10786E-001	4.51654E-006	0.00000E+000	-3.10000E-001	1.50919E-003	7	...........	-327.66
	766	1.534	-3.00768E-001	4.48347E-006	0.00000E+000	-3.00000E-001	1.51264E-003	7	...........	-327.66
	767	1.536	-2.90749E-001	4.45531E-006	0.00000E+000	-2.90000E-001	1.47298E-003	7	...........	-327.66
	768	1.538	-2.80781E-001	4.43180E-006	0.00000E+000	-2.80000E-001	1.44195E-003	7	...........	-327.66
	769	1.54	-2.70734E-001	4.41339E-006	0.00000E+000	-2.70000E-001	1.42815E-003	7	...........	-327.66
	770	1.542	-2.60778E-001	4.39664E-006	0.00000E+000	-2.60000E-001	1.49540E-003	7	...........	-327.66
	771	1.544	-2.50795E-001	4.38261E-006	0.00000E+000	-2.50000E-001	1.44540E-003	7	...........	-327.66
	772	1.546	-2.40769E-001	4.37091E-006	0.00000E+000	-2.40000E-001	1.45057E-003	7	...........	-327.66
	773	1.548	-2.30786E-001	4.35888E-006	0.00000E+000	-2.30000E-001	1.41953E-003	7	...........	-327.66
	774	1.55	-2.20740E-001	4.34921E-006	0.00000E+000	-2.20000E-001	1.46436E-003	7	...........	-327.66
	775	1.552	-2.10774E-001	4.34084E-006	0.00000E+000	-2.10000E-001	1.44884E-003	7	...........	-327.66
	776	1.554	-2.00792E-001	4.33207E-006	0.00000E+000	-2.00000E-001	1.37298E-003	7	...........	-327.66
	777	1.556	-1.90722E-001	4.32637E-006	0.00000E+000	-1.90000E-001	1.41781E-003	7	...........	-327.66
	778	1.558	-1.80811E-001	4.31886E-006	0.00000E+000	-1.80000E-001	1.45402E-003	7	...........	-327.66
	779	1.56	-1.70782E-001	4.31441E-006	0.00000E+000	-1.70000E-001	1.39540E-003	7	...........	-327.66
	780	1.562	-1.60779E-001	4.30917E-006	0.00000E+000	-1.60000E-001	1.46264E-003	7	...........	-327.66
	781	1.564	-1.50815E-001	4.30430E-006	0.00000E+000	-1.50000E-001	1.47471E-003	7	...........	-327.66
	782	1.566	-1.40784E-001	4.30135E-006	0.00000E+000	-1.40000E-001	1.49195E-003	7	...........	-327.66
	783	1.568	-1.30809E-001	4.29778E-006	0.00000E+000	-1.30000E-001	1.46091E-003	7	...........	-327.66
	784	1.57	-1.20816E-001	4.29471E-006	0.00000E+000	-1.20000E-001	1.48160E-003	7	...........	-327.66
	785	1.572	-1.10796E-001	4.29166E-006	0.00000E+000	-1.10000E-001	1.47126E-003	7	...........	-327.66
	786	1.574	-1.00793E-001	4.28868E-006	0.00000E+000	-1.00000E-001	1.46609E-003	7	...........	-327.66
	787	1.576	-9.07899E-002	4.28699E-006	0.00000E+000	-9.00000E-002	1.50402E-003	7	...........	-327.66
	788	1.578	-8.07934E-002	4.28395E-006	0.00000E+000	-8.00000E-002	1.39367E-003	7	...........	-327.66
	789	1.58	-7.07796E-002	4.28118E-006	0.00000E+000	-7.00000E-002	1.43505E-003	7	...........	-327.66
	790	1.582	-6.07951E-002	4.27806E-006	0.00000E+000	-6.00000E-002	1.46609E-003	7	...........	-327.66
	791	1.584	-5.08158E-002	4.27511E-006	0.00000E+000	-5.00000E-002	1.42815E-003	7	...........	-327.66
	792	1.586	-4.07779E-002	4.27138E-006	0.00000E+000	-4.00000E-002	1.48160E-003	7	...........	-327.66
	793	1.588	-3.07865E-002	4.26762E-006	0.00000E+000	-3.00000E-002	1.52126E-003	7	...........	-327.66
	794	1.59	-2.08098E-002	4.26314E-006	0.00000E+000	-2.00000E-002	1.47298E-003	7	...........	-327.66
	795	1.592	-1.07779E-002	4.25952E-006	0.00000E+000	-1.00000E-002	1.51091E-003	7	...........	-327.66
	796	1.594	-8.00279E-004	4.25383E-006	0.00000E+000	-1.49012E-008	1.46781E-003	7	...........	-327.66
	797	1.596	9.23679E-003	4.24867E-006	0.00000E+000	9.99999E-003	1.42471E-003	7	...........	-327.66
	798	1.598	1.92264E-002	4.24259E-006	0.00000E+000	2.00000E-002	1.38333E-003	7	...........	-327.66
	799	1.6	2.92075E-002	4.23645E-006	0.00000E+000	3.00000E-002	1.41953E-003	7	...........	-327.66
	800	1.602	3.91299E-002	4.22943E-006	0.00000E+000	4.00000E-002	1.48333E-003	7	...........	-327.66
	801	1.604	4.92325E-002	4.22234E-006	0.00000E+000	5.00000E-002	1.44367E-003	7	...........	-327.66
	802	1.606	5.92282E-002	4.21510E-006	0.00000E+000	6.00000E-002	1.47988E-003	7	...........	-327.66
	803	1.608	6.92161E-002	4.20655E-006	0.00000E+000	7.00000E-002	1.45747E-003	7	...........	-327.66
	804	1.61	7.91920E-002	4.19815E-006	0.00000E+000	8.00000E-002	1.40919E-003	7	...........	-327.66
	805	1.612	8.92695E-002	4.18891E-006	0.00000E+000	9.00000E-002	1.40402E-003	7	...........	-327.66
	806	1.614	9.92204E-002	4.17927E-006	0.00000E+000	1.00000E-001	1.46953E-003	7	...........	-327.66
	807	1.616	1.09213E-001	4.17016E-006	0.00000E+000	1.10000E-001	1.41609E-003	7	...........	-327.66
	808	1.618	1.19245E-001	4.15973E-006	0.00000E+000	1.20000E-001	1.41609E-003	7	...........	-327.66
	809	1.62	1.29241E-001	4.14947E-006	0.00000E+000	1.30000E-001	1.37988E-003	7	...........	-327.66
	810	1.622	1.39271E-001	4.13887E-006	0.00000E+000	1.40000E-001	1.48160E-003	7	...........	-327.66
	811	1.624	1.49248E-001	4.12895E-006	0.00000E+000	1.50000E-001	1.43160E-003	7	...........	-327.66
	812	1.626	1.59231E-001	4.11805E-006	0.00000E+000	1.60000E-001	1.42988E-003	7	...........	-327.66
	813	1.628	1.69258E-001	4.10836E-006	0.00000E+000	1.70000E-001	1.36436E-003	7	...........	-327.66
	814	1.63	1.79215E-001	4.09834E-006	0.00000E+000	1.80000E-001	1.39884E-003	7	...........	-327.66
	815	1.632	1.89218E-001	4.08745E-006	0.00000E+000	1.90000E-001	1.36264E-003	7	...........	-327.66
	816	1.634	1.99192E-001	4.07748E-006	0.00000E+000	2.00000E-001	1.41781E-003	7	...........	-327.66
	817	1.636	2.09195E-001	4.06825E-006	0.00000E+000	2.10000E-001	1.50919E-003	7	...........	-327.66
	818	1.638	2.19210E-001	4.05882E-006	0.00000E+000	2.20000E-001	1.39022E-003	7	...........	-327.66
	819	1.64	2.29190E-001	4.04915E-006	0.00000E+000	2.30000E-001	1.41781E-003	7	...........	-327.66
	820	1.642	2.39188E-001	4.04097E-006	0.00000E+000	2.40000E-001	1.41091E-003	7	...........	-327.66
	821	1.644	2.49200E-001	4.03258E-006	0.00000E+000	2.50000E-001	1.40747E-003	7	...........	-327.66
	822	1.646	2.59183E-001	4.02257E-006	0.00000E+000	2.60000E-001	1.47298E-003	7	...........	-327.66
	823	1.648	2.69218E-001	4.01575E-006	0.00000E+000	2.70000E-001	1.40229E-003	7	...........	-327.66
	824	1.65	2.79181E-001	4.00823E-006	0.00000E+000	2.80000E-001	1.47988E-003	7	...........	-327.66
	825	1.652	2.89195E-001	4.00252E-006	0.00000E+000	2.90000E-001	1.42643E-003	7	...........	-327.66
	826	1.654	2.99190E-001	3.99578E-006	0.00000E+000	3.00000E-001	1.43505E-003	7	...........	-327.66
	827	1.656	3.09171E-001	3.99185E-006	0.00000E+000	3.10000E-001	1.43505E-003	7	...........	-327.66
	828	1.658	3.19201E-001	3.98771E-006	0.00000E+000	3.20000E-001	1.45229E-003	7	...........	-327.66
	829	1.66	3.29234E-001	3.98476E-006	0.00000E+000	3.30000E-001	1.51264E-003	7	...........	-327.66
	830	1.662	3.39193E-001	3.98240E-006	0.00000E+000	3.40000E-001	1.44540E-003	7	...........	-327.66
	831	1.664	3.49197E-001	3.98072E-006	0.00000E+000	3.50000E-001	1.41091E-003	7	...........	-327.66
	832	1.666	3.59182E-001	3.98126E-006	0.00000E+000	3.60000E-001	1.49022E-003	7	...........	-327.66
	833	1.668	3.69229E-001	3.98328E-006	0.00000E+000	3.70000E-001	1.42988E-003	7	...........	-327.66
	834	1.67	3.79194E-001	3.98474E-006	0.00000E+000	3.80000E-001	1.42643E-003	7	...........	-327.66
	835	1.672	3.89170E-001	3.98812E-006	0.00000E+000	3.90000E-001	1.48160E-003	7	...........	-327.66
	836	1.674	3.99208E-001	3.99392E-006	0.00000E+000	4.00000E-001	1.48333E-003	7	...........	-327.66
	837	1.676	4.09186E-001	4.00055E-006	0.00000E+000	4.10000E-001	1.46609E-003	7	...........	-327.66
	838	1.678	4.19195E-001	4.00818E-006	0.00000E+000	4.20000E-001	1.42126E-003	7	...........	-327.66
	839	1.68	4.29191E-001	4.01694E-006	0.00000E+000	4.30000E-001	1.46264E-003	7	...........	-327.66
	840	1.682	4.39149E-001	4.02744E-006	0.00000E+000	4.40000E-001	1.45747E-003	7	...........	-327.66
	841	1.684	4.49217E-001	4.04070E-006	0.00000E+000	4.50000E-001	1.40919E-003	7	...........	-327.66
	842	1.686	4.59176E-001	4.05346E-006	0.00000E+000	4.60000E-001	1.43160E-003	7	...........	-327.66
	843	1.688	4.69170E-001	4.06944E-006	0.00000E+000	4.70000E-001	1.47126E-003	7	...........	-327.66
	844	1.69	4.79170E-001	4.08705E-006	0.00000E+000	4.80000E-001	1.39540E-003	7	...........	-327.66
	845	1.692	4.89156E-001	4.10536E-006	0.00000E+000	4.90000E-001	1.44884E-003	7	...........	-327.66
	846	1.694	4.99189E-001	4.12652E-006	0.00000E+000	5.00000E-001	1.46953E-003	7	...........	-327.66
	847	1.696	5.09158E-001	4.14940E-006	0.00000E+000	5.10000E-001	1.50402E-003	7	...........	-327.66
	848	1.698	5.19156E-001	4.17353E-006	0.00000E+000	5.20000E-001	1.48678E-003	7	...........	-327.66
	849	1.7	5.29201E-001	4.19893E-006	0.00000E+000	5.30000E-001	1.45574E-003	7	...........	-327.66
	850	1.702	5.39180E-001	4.22607E-006	0.00000E+000	5.40000E-001	1.46953E-003	7	...........	-327.66
	851	1.704	5.49184E-001	4.25549E-006	0.00000E+000	5.50000E-001	1.42988E-003	7	...........	-327.66
	852	1.706	5.59190E-001	4.28711E-006	0.00000E+000	5.60000E-001	1.39884E-003	7	...........	-327.66
	853	1.708	5.69182E-001	4.31955E-006	0.00000E+000	5.70000E-001	1.41609E-003	7	...........	-327.66
	854	1.71	5.79173E-001	4.35438E-006	0.00000E+000	5.80000E-001	1.40574E-003	7	...........	-327.66
	855	1.712	5.89170E-001	4.39093E-006	0.00000E+000	5.90000E-001	1.46264E-003	7	...........	-327.66
	856	1.714	5.99191E-001	4.42747E-006	0.00000E+000	6.00000E-001	1.51091E-003	7	...........	-327.66
CURVE4	TABLE
	Pt	T	Vf	Im	Vu	Sig	Ach	IERange	Over	Temp
	#	s	V vs. Ref.	A	V	V	V	#	bits	deg C
	857	1.716	5.90759E-001	2.93055E-006	0.00000E+000	5.90000E-001	1.44884E-003	7	...........	-327.66
	858	1.718	5.80762E-001	2.09412E-006	0.00000E+000	5.80000E-001	1.42471E-003	7	...........	-327.66
	859	1.72	5.70759E-001	1.48021E-006	0.00000E+000	5.70000E-001	1.47643E-003	7	...........	-327.66
	860	1.722	5.60760E-001	9.77246E-007	0.00000E+000	5.60000E-001	1.48850E-003	7	...........	-327.66
	861	1.724	5.50771E-001	5.46721E-007	0.00000E+000	5.50000E-001	1.47471E-003	7	...........	-327.66
	862	1.726	5.40789E-001	1.68170E-007	0.00000E+000	5.40000E-001	1.47988E-003	7	...........	-327.66
	863	1.728	5.30776E-001	-1.67324E-007	0.00000E+000	5.30000E-001	1.47126E-003	7	...........	-327.66
	864	1.73	5.20779E-001	-4.70279E-007	0.00000E+000	5.20000E-001	1.43160E-003	7	...........	-327.66
	865	1.732	5.10764E-001	-7.40937E-007	0.00000E+000	5.10000E-001	1.42298E-003	7	...........	-327.66
	866	1.734	5.00801E-001	-9.85608E-007	0.00000E+000	5.00000E-001	1.39884E-003	7	...........	-327.66
	867	1.736	4.90754E-001	-1.20838E-006	0.00000E+000	4.90000E-001	1.45402E-003	7	...........	-327.66
	868	1.738	4.80755E-001	-1.41068E-006	0.00000E+000	4.80000E-001	1.39712E-003	7	...........	-327.66
	869	1.74	4.70782E-001	-1.59355E-006	0.00000E+000	4.70000E-001	1.44884E-003	7	...........	-327.66
	870	1.742	4.60770E-001	-1.76225E-006	0.00000E+000	4.60000E-001	1.52471E-003	7	...........	-327.66
	871	1.744	4.50850E-001	-1.91505E-006	0.00000E+000	4.50000E-001	1.46609E-003	7	...........	-327.66
	872	1.746	4.40769E-001	-2.05743E-006	0.00000E+000	4.40000E-001	1.47298E-003	7	...........	-327.66
	873	1.748	4.30779E-001	-2.18646E-006	0.00000E+000	4.30000E-001	1.40229E-003	7	...........	-327.66
	874	1.75	4.20809E-001	-2.30560E-006	0.00000E+000	4.20000E-001	1.38160E-003	7	...........	-327.66
	875	1.752	4.10782E-001	-2.41448E-006	0.00000E+000	4.10000E-001	1.35747E-003	7	...........	-327.66
	876	1.754	4.00786E-001	-2.51716E-006	0.00000E+000	4.00000E-001	1.41091E-003	7	...........	-327.66
	877	1.756	3.90797E-001	-2.61211E-006	0.00000E+000	3.90000E-001	1.40574E-003	7	...........	-327.66
	878	1.758	3.80814E-001	-2.69851E-006	0.00000E+000	3.80000E-001	1.47471E-003	7	...........	-327.66
	879	1.76	3.70836E-001	-2.78116E-006	0.00000E+000	3.70000E-001	1.40747E-003	7	...........	-327.66
	880	1.762	3.60765E-001	-2.85859E-006	0.00000E+000	3.60000E-001	1.46091E-003	7	...........	-327.66
	881	1.764	3.50820E-001	-2.93055E-006	0.00000E+000	3.50000E-001	1.47988E-003	7	...........	-327.66
	882	1.766	3.40829E-001	-2.99812E-006	0.00000E+000	3.40000E-001	1.41091E-003	7	...........	-327.66
	883	1.768	3.30809E-001	-3.06115E-006	0.00000E+000	3.30000E-001	1.48160E-003	7	...........	-327.66
	884	1.77	3.20801E-001	-3.12314E-006	0.00000E+000	3.20000E-001	1.45057E-003	7	...........	-327.66
	885	1.772	3.10794E-001	-3.18008E-006	0.00000E+000	3.10000E-001	1.39022E-003	7	...........	-327.66
	886	1.774	3.00792E-001	-3.23597E-006	0.00000E+000	3.00000E-001	1.45919E-003	7	...........	-327.66
	887	1.776	2.90808E-001	-3.28682E-006	0.00000E+000	2.90000E-001	1.44712E-003	7	...........	-327.66
	888	1.778	2.80791E-001	-3.33745E-006	0.00000E+000	2.80000E-001	1.44884E-003	7	...........	-327.66
	889	1.78	2.70868E-001	-3.38571E-006	0.00000E+000	2.70000E-001	1.42298E-003	7	...........	-327.66
	890	1.782	2.60809E-001	-3.43270E-006	0.00000E+000	2.60000E-001	1.38333E-003	7	...........	-327.66
	891	1.784	2.50829E-001	-3.47602E-006	0.00000E+000	2.50000E-001	1.47298E-003	7	...........	-327.66
	892	1.786	2.40790E-001	-3.51918E-006	0.00000E+000	2.40000E-001	1.42298E-003	7	...........	-327.66
	893	1.788	2.30790E-001	-3.56103E-006	0.00000E+000	2.30000E-001	1.46609E-003	7	...........	-327.66
	894	1.79	2.20843E-001	-3.60172E-006	0.00000E+000	2.20000E-001	1.46953E-003	7	...........	-327.66
	895	1.792	2.10776E-001	-3.64075E-006	0.00000E+000	2.10000E-001	1.44540E-003	7	...........	-327.66
	896	1.794	2.00815E-001	-3.67796E-006	0.00000E+000	2.00000E-001	1.45057E-003	7	...........	-327.66
	897	1.796	1.90850E-001	-3.71481E-006	0.00000E+000	1.90000E-001	1.37471E-003	7	...........	-327.66
	898	1.798	1.80804E-001	-3.75092E-006	0.00000E+000	1.80000E-001	1.45747E-003	7	...........	-327.66
	899	1.8	1.70874E-001	-3.78458E-006	0.00000E+000	1.70000E-001	1.46091E-003	7	...........	-327.66
	900	1.802	1.60841E-001	-3.81832E-006	0.00000E+000	1.60000E-001	1.41609E-003	7	...........	-327.66