File: Test_Data_Files/20250424_F_CHI105_2mmAu_E000_PBSarg_CV5000.DTA
EXPLAIN
TAG	CV
TITLE	LABEL	Cyclic Voltammetry	Test &Identifier
DATE	LABEL	4/24/2025	Date
TIME	LABEL	17:00:35	Time
NOTES	NOTES	3	&Notes...

PSTAT	PSTAT	IFC1010-32247	Potentiostat
VINIT	POTEN	0.00000E+000	T	Initial &E (V)
VLIMIT1	POTEN	-6.00000E-001	F	Scan Limit &1 (V)
VLIMIT2	POTEN	8.00000E-001	F	Scan Limit &2 (V)
VFINAL	POTEN	0.00000E+000	T	Final &E (V)
SCANRATE	QUANT	4.99999E+003	&Scan Rate (mV/s)
STEPSIZE	QUANT	1.00000E+001	St&ep Size (mV)
CYCLES	IQUANT	3	C&ycles (#)
IMODE	SELECTOR	1	I/E Range &Mode
IRANGE	QUANT	1.00000E-002	&Max Current (mA)
AREA	QUANT	1.00000E+000	Electrode &Area (cm^2)
ELECTRODETYPE	SELECTOR	0	Electrode Type
STRIPPING	TOGGLE	F	Used for Stripping
CONDIT	TWOPARAM	F	1.50000E+001	0.00000E+000	Conditionin&g	Time(s)	E(V)
DELAY	TWOPARAM	T	1.50000E+001	0.00000E+000	Init. De&lay	Time(s)	Stab.(mV/s)
EQDELAY	QUANT	0.00000E+000	Equil. &Time (s)
IRCOMP	SELECTOR	0	IRCom&p
PFCOR	QUANT	5.00000E+001	PF Corr. (ohm)
SAMPLINGMODE	SELECTOR	2	Sampling &Mode
OCVCURVE	TABLE	58
	Pt	T	Vf	Vm	Ach	Over	Temp
	#	s	V vs. Ref.	V	V	bits	deg C
	0	0.258333	2.76920E-001	2.76920E-001	0.00000E+000	...........	1367.91
	1	0.516667	2.76919E-001	2.76858E-001	0.00000E+000	...........	1367.91
	2	0.775	2.76911E-001	2.76781E-001	0.00000E+000	...........	1367.91
	3	1.03333	2.76889E-001	2.76709E-001	0.00000E+000	...........	1367.60
	4	1.29167	2.76846E-001	2.76638E-001	0.00000E+000	...........	1367.57
	5	1.55	2.76787E-001	2.76585E-001	0.00000E+000	...........	1367.57
	6	1.80833	2.76719E-001	2.76501E-001	0.00000E+000	...........	1367.57
	7	2.06667	2.76650E-001	2.76439E-001	0.00000E+000	...........	1367.91
	8	2.325	2.76581E-001	2.76379E-001	0.00000E+000	...........	1367.91
	9	2.58333	2.76513E-001	2.76312E-001	0.00000E+000	...........	1367.91
	10	2.84167	2.76447E-001	2.76247E-001	0.00000E+000	...........	1367.91
	11	3.1	2.76381E-001	2.76172E-001	0.00000E+000	...........	1368.00
	12	3.35833	2.76316E-001	2.76111E-001	0.00000E+000	...........	1368.00
	13	3.61667	2.76249E-001	2.76050E-001	0.00000E+000	...........	1368.00
	14	3.875	2.76182E-001	2.75978E-001	0.00000E+000	...........	1368.00
	15	4.13333	2.76116E-001	2.75912E-001	0.00000E+000	...........	1368.00
	16	4.39167	2.76051E-001	2.75852E-001	0.00000E+000	...........	1368.00
	17	4.65	2.75985E-001	2.75796E-001	0.00000E+000	...........	1368.00
	18	4.90833	2.75921E-001	2.75726E-001	0.00000E+000	...........	1368.00
	19	5.16667	2.75858E-001	2.75662E-001	0.00000E+000	...........	1368.00
	20	5.425	2.75795E-001	2.75584E-001	0.00000E+000	...........	1368.00
	21	5.68333	2.75730E-001	2.75523E-001	0.00000E+000	...........	1368.00
	22	5.94167	2.75663E-001	2.75469E-001	0.00000E+000	...........	1368.00
	23	6.2	2.75596E-001	2.75388E-001	0.00000E+000	...........	1368.00
	24	6.45833	2.75530E-001	2.75328E-001	0.00000E+000	...........	1368.00
	25	6.71667	2.75465E-001	2.75265E-001	0.00000E+000	...........	1368.00
	26	6.975	2.75399E-001	2.75212E-001	0.00000E+000	...........	1368.00
	27	7.23333	2.75335E-001	2.75136E-001	0.00000E+000	...........	1368.00
	28	7.49167	2.75272E-001	2.75079E-001	0.00000E+000	...........	1368.00
	29	7.75	2.75209E-001	2.75011E-001	0.00000E+000	...........	1368.00
	30	8.00833	2.75146E-001	2.74955E-001	0.00000E+000	...........	1368.00
	31	8.26667	2.75082E-001	2.74890E-001	0.00000E+000	...........	1368.00
	32	8.525	2.75020E-001	2.74841E-001	0.00000E+000	...........	1368.00
	33	8.78333	2.74958E-001	2.74765E-001	0.00000E+000	...........	1368.00
	34	9.04167	2.74898E-001	2.74709E-001	0.00000E+000	...........	1367.83
	35	9.3	2.74836E-001	2.74608E-001	0.00000E+000	...........	1367.83
	36	9.5583	2.74771E-001	2.74557E-001	0.00000E+000	...........	1367.83
	37	9.8167	2.74701E-001	2.74491E-001	0.00000E+000	...........	1367.83
	38	10.075	2.74631E-001	2.74433E-001	0.00000E+000	...........	1367.91
	39	10.3333	2.74563E-001	2.74365E-001	0.00000E+000	...........	1367.91
	40	10.5917	2.74497E-001	2.74290E-001	0.00000E+000	...........	1367.91
	41	10.85	2.74433E-001	2.74243E-001	0.00000E+000	...........	1367.91
	42	11.1083	2.74369E-001	2.74182E-001	0.00000E+000	...........	1368.00
	43	11.3667	2.74305E-001	2.74097E-001	0.00000E+000	...........	1368.00
	44	11.625	2.74242E-001	2.74042E-001	0.00000E+000	...........	1368.00
	45	11.8833	2.74178E-001	2.73984E-001	0.00000E+000	...........	1368.00
	46	12.1417	2.74113E-001	2.73938E-001	0.00000E+000	...........	1368.00
	47	12.4	2.74051E-001	2.73867E-001	0.00000E+000	...........	1368.00
	48	12.6583	2.73991E-001	2.73795E-001	0.00000E+000	...........	1368.00
	49	12.9167	2.73932E-001	2.73735E-001	0.00000E+000	...........	1368.00
	50	13.175	2.73869E-001	2.73676E-001	0.00000E+000	...........	1367.91
	51	13.4333	2.73806E-001	2.73628E-001	0.00000E+000	...........	1367.91
	52	13.6917	2.73744E-001	2.73558E-001	0.00000E+000	...........	1367.91
	53	13.95	2.73684E-001	2.73500E-001	0.00000E+000	...........	1367.91
	54	14.2083	2.73624E-001	2.73424E-001	0.00000E+000	...........	1368.00
	55	14.4667	2.73564E-001	2.73380E-001	0.00000E+000	...........	1368.00
	56	14.725	2.73501E-001	2.73308E-001	0.00000E+000	...........	1368.00
	57	14.9833	2.73439E-001	2.73242E-001	0.00000E+000	...........	1368.00
EOC	QUANT	0.2734389	Open Circuit (V)
PSTATMODEL	IQUANT	64	Pstat Model
PSTATSECTION	LABEL	IFC1010-32247	Pstat Section
PSTATSERIALNO	LABEL	32247	Pstat Serial Number
CTRLMODE	IQUANT	1	Control Mode
ELECTROMETER	IQUANT	0	RE=0 or CS=1
IESTAB	IQUANT	2	I/E Stability
CASPEED	IQUANT	4	Control Amp Speed
CONVENTION	IQUANT	1	Current Convention
ICHRANGE	IQUANT	2	Ich Range
ICHRANGEMODE	TOGGLE	F	Ich Auto Range
ICHOFFSETENABLE	TOGGLE	F	Ich Offset Enable
ICHOFFSET	QUANT	0	Ich Offset (V)
ICHFILTER	IQUANT	3	Ich Filter
VCHRANGE	IQUANT	2	Vch Range
VCHRANGEMODE	TOGGLE	F	Vch Auto Range
VCHOFFSETENABLE	TOGGLE	F	Vch Offset Enable
VCHOFFSET	QUANT	0	Vch Offset (V)
VCHFILTER	IQUANT	3	Vch Filter
IERANGELOWERLIMIT	IQUANT	4	I/E Range Lower Limit
IERANGEMODE	TOGGLE	F	I/E AutoRange
IERANGE	IQUANT	8	I/E Range
ACHSELECT	IQUANT	0	Ach Select
ACHRANGE	IQUANT	2	Ach Range
ACHOFFSETENABLE	TOGGLE	F	Ach Offset Enable
ACHOFFSET	QUANT	0	Ach Offset (V)
ACHFILTER	IQUANT	1	Ach Filter
SENSECABLEID	IQUANT	14	Sense Cable ID
PWRCABLEID	IQUANT	14	Power Cable ID
DCCALDATE	LABEL	11/18/2024	DC Calibration Date
ACCALDATE	LABEL	4/18/2022	AC Calibration Date
FRAMEWORKVERSION	LABEL	7.10.3	Framework Version
INSTRUMENTVERSION	LABEL	4.91	Instrument Version
COMMVERSION	LABEL	3.10	Communications Version
CPUPLDVERSION	LABEL	2.22	CPU PLD Version
CTRLPLDVERSION	LABEL	0.00	CTRL PLD Version
PSTATPLDVERSION	LABEL	0.00	PSTAT PLD Version
CURVE1	TABLE
	Pt	T	Vf	Im	Vu	Sig	Ach	IERange	Over	Temp
	#	s	V vs. Ref.	A	V	V	V	#	bits	deg C
	0	0.002	2.73450E-001	2.54314E-007	0.00000E+000	2.73429E-001	0.00000E+000	8	...........	1367.57
	1	0.004	2.64549E-001	-2.46358E-005	0.00000E+000	2.63432E-001	0.00000E+000	8	...........	1367.57
	2	0.006	2.54622E-001	-2.78866E-005	0.00000E+000	2.53434E-001	0.00000E+000	8	...........	1367.57
	3	0.008	2.44630E-001	-2.86672E-005	0.00000E+000	2.43437E-001	0.00000E+000	8	...........	1367.57
	4	0.01	2.34651E-001	-2.89247E-005	0.00000E+000	2.33439E-001	0.00000E+000	8	...........	1367.57
	5	0.012	2.24638E-001	-2.90836E-005	0.00000E+000	2.23442E-001	0.00000E+000	8	...........	1367.57
	6	0.014	2.14633E-001	-2.92736E-005	0.00000E+000	2.13444E-001	0.00000E+000	8	...........	1367.57
	7	0.016	2.04637E-001	-2.93695E-005	0.00000E+000	2.03447E-001	0.00000E+000	8	...........	1367.57
	8	0.018	1.94651E-001	-2.92230E-005	0.00000E+000	1.93449E-001	0.00000E+000	8	...........	1367.57
	9	0.02	1.84653E-001	-2.89389E-005	0.00000E+000	1.83452E-001	0.00000E+000	8	...........	1367.57
	10	0.022	1.74658E-001	-2.86687E-005	0.00000E+000	1.73455E-001	0.00000E+000	8	...........	1367.57
	11	0.024	1.64655E-001	-2.85012E-005	0.00000E+000	1.63457E-001	0.00000E+000	8	...........	1367.57
	12	0.026	1.54659E-001	-2.82419E-005	0.00000E+000	1.53460E-001	0.00000E+000	8	...........	1367.57
	13	0.028	1.44674E-001	-2.77154E-005	0.00000E+000	1.43462E-001	0.00000E+000	8	...........	1367.57
	14	0.03	1.34623E-001	-2.72218E-005	0.00000E+000	1.33415E-001	0.00000E+000	8	...........	1367.57
	15	0.032	1.24620E-001	-2.66113E-005	0.00000E+000	1.23417E-001	0.00000E+000	8	...........	1367.57
	16	0.034	1.14622E-001	-2.62164E-005	0.00000E+000	1.13420E-001	0.00000E+000	8	...........	1367.57
	17	0.036	1.04621E-001	-2.59555E-005	0.00000E+000	1.03423E-001	0.00000E+000	8	...........	1367.57
	18	0.038	9.46345E-002	-2.58094E-005	0.00000E+000	9.34251E-002	0.00000E+000	8	...........	1367.57
	19	0.04	8.46453E-002	-2.57249E-005	0.00000E+000	8.34276E-002	0.00000E+000	8	...........	1367.57
	20	0.042	7.46341E-002	-2.57256E-005	0.00000E+000	7.34302E-002	0.00000E+000	8	...........	1367.57
	21	0.044	6.46398E-002	-2.57493E-005	0.00000E+000	6.34327E-002	0.00000E+000	8	...........	1367.57
	22	0.046	5.46371E-002	-2.58289E-005	0.00000E+000	5.34353E-002	0.00000E+000	8	...........	1367.57
	23	0.048	4.46352E-002	-2.59583E-005	0.00000E+000	4.34379E-002	0.00000E+000	8	...........	1367.57
	24	0.05	3.46452E-002	-2.61405E-005	0.00000E+000	3.34404E-002	0.00000E+000	8	...........	1367.57
	25	0.052	2.46331E-002	-2.63660E-005	0.00000E+000	2.34430E-002	0.00000E+000	8	...........	1367.57
	26	0.054	1.46321E-002	-2.66027E-005	0.00000E+000	1.34455E-002	0.00000E+000	8	...........	1367.57
	27	0.056	4.65053E-003	-2.69268E-005	0.00000E+000	3.44809E-003	0.00000E+000	8	...........	1367.57
	28	0.058	-5.37255E-003	-2.73034E-005	0.00000E+000	-6.54935E-003	0.00000E+000	8	...........	1367.57
	29	0.06	-1.53719E-002	-2.77558E-005	0.00000E+000	-1.65468E-002	0.00000E+000	8	...........	1367.57
	30	0.062	-2.53882E-002	-2.82731E-005	0.00000E+000	-2.65442E-002	0.00000E+000	8	...........	1367.57
	31	0.064	-3.53596E-002	-2.87496E-005	0.00000E+000	-3.65417E-002	0.00000E+000	8	...........	1367.57
	32	0.066	-4.53538E-002	-2.91305E-005	0.00000E+000	-4.65391E-002	0.00000E+000	8	...........	1367.57
	33	0.068	-5.53676E-002	-2.93610E-005	0.00000E+000	-5.65366E-002	0.00000E+000	8	...........	1367.57
	34	0.07	-6.53966E-002	-2.96371E-005	0.00000E+000	-6.65840E-002	0.00000E+000	8	...........	1367.57
	35	0.072	-7.54070E-002	-2.97444E-005	0.00000E+000	-7.65814E-002	0.00000E+000	8	...........	1367.57
	36	0.074	-8.53928E-002	-2.99371E-005	0.00000E+000	-8.65789E-002	0.00000E+000	8	...........	1367.57
	37	0.076	-9.53879E-002	-3.02061E-005	0.00000E+000	-9.65763E-002	0.00000E+000	8	...........	1367.57
	38	0.078	-1.05407E-001	-3.04406E-005	0.00000E+000	-1.06574E-001	0.00000E+000	8	...........	1367.57
	39	0.08	-1.15376E-001	-3.07176E-005	0.00000E+000	-1.16571E-001	0.00000E+000	8	...........	1367.57
	40	0.082	-1.25355E-001	-3.10033E-005	0.00000E+000	-1.26569E-001	0.00000E+000	8	...........	1367.57
	41	0.084	-1.35368E-001	-3.12832E-005	0.00000E+000	-1.36566E-001	0.00000E+000	8	...........	1367.57
	42	0.086	-1.45364E-001	-3.15759E-005	0.00000E+000	-1.46564E-001	0.00000E+000	8	...........	1367.57
	43	0.088	-1.55375E-001	-3.18807E-005	0.00000E+000	-1.56561E-001	0.00000E+000	8	...........	1367.57
	44	0.09	-1.65376E-001	-3.21945E-005	0.00000E+000	-1.66558E-001	0.00000E+000	8	...........	1367.57
	45	0.092	-1.75360E-001	-3.25014E-005	0.00000E+000	-1.76556E-001	0.00000E+000	8	...........	1367.57
	46	0.094	-1.85366E-001	-3.28223E-005	0.00000E+000	-1.86553E-001	0.00000E+000	8	...........	1367.57
	47	0.096	-1.95365E-001	-3.31456E-005	0.00000E+000	-1.96551E-001	0.00000E+000	8	...........	1367.57
	48	0.098	-2.05358E-001	-3.34717E-005	0.00000E+000	-2.06548E-001	0.00000E+000	8	...........	1367.57
	49	0.1	-2.15355E-001	-3.37527E-005	0.00000E+000	-2.16546E-001	0.00000E+000	8	...........	1367.57
	50	0.102	-2.25353E-001	-3.40616E-005	0.00000E+000	-2.26543E-001	0.00000E+000	8	...........	1367.57
	51	0.104	-2.35359E-001	-3.43168E-005	0.00000E+000	-2.36540E-001	0.00000E+000	8	...........	1367.57
	52	0.106	-2.45369E-001	-3.45281E-005	0.00000E+000	-2.46538E-001	0.00000E+000	8	...........	1367.57
	53	0.108	-2.55413E-001	-3.48107E-005	0.00000E+000	-2.56585E-001	0.00000E+000	8	...........	1367.57
	54	0.11	-2.65406E-001	-3.47968E-005	0.00000E+000	-2.66583E-001	0.00000E+000	8	...........	1367.57
	55	0.112	-2.75410E-001	-3.48295E-005	0.00000E+000	-2.76580E-001	0.00000E+000	8	...........	1367.57
	56	0.114	-2.85404E-001	-3.47955E-005	0.00000E+000	-2.86578E-001	0.00000E+000	8	...........	1367.57
	57	0.116	-2.95408E-001	-3.46840E-005	0.00000E+000	-2.96575E-001	0.00000E+000	8	...........	1367.57
	58	0.118	-3.05403E-001	-3.45136E-005	0.00000E+000	-3.06573E-001	0.00000E+000	8	...........	1367.57
	59	0.12	-3.15390E-001	-3.42231E-005	0.00000E+000	-3.16570E-001	0.00000E+000	8	...........	1367.57
	60	0.122	-3.25397E-001	-3.39483E-005	0.00000E+000	-3.26567E-001	0.00000E+000	8	...........	1367.57
	61	0.124	-3.35401E-001	-3.36082E-005	0.00000E+000	-3.36565E-001	0.00000E+000	8	...........	1367.57
	62	0.126	-3.45404E-001	-3.31962E-005	0.00000E+000	-3.46562E-001	0.00000E+000	8	...........	1367.57
	63	0.128	-3.55382E-001	-3.27559E-005	0.00000E+000	-3.56560E-001	0.00000E+000	8	...........	1367.57
	64	0.13	-3.65385E-001	-3.22943E-005	0.00000E+000	-3.66557E-001	0.00000E+000	8	...........	1367.57
	65	0.132	-3.75378E-001	-3.17966E-005	0.00000E+000	-3.76555E-001	0.00000E+000	8	...........	1367.57
	66	0.134	-3.85379E-001	-3.12698E-005	0.00000E+000	-3.86552E-001	0.00000E+000	8	...........	1367.57
	67	0.136	-3.95374E-001	-3.07134E-005	0.00000E+000	-3.96550E-001	0.00000E+000	8	...........	1367.57
	68	0.138	-4.05383E-001	-3.01295E-005	0.00000E+000	-4.06547E-001	0.00000E+000	8	...........	1367.57
	69	0.14	-4.15380E-001	-2.95235E-005	0.00000E+000	-4.16544E-001	0.00000E+000	8	...........	1367.57
	70	0.142	-4.25398E-001	-2.88955E-005	0.00000E+000	-4.26542E-001	0.00000E+000	8	...........	1367.57
	71	0.144	-4.35391E-001	-2.82538E-005	0.00000E+000	-4.36539E-001	0.00000E+000	8	...........	1367.57
	72	0.146	-4.45371E-001	-2.75723E-005	0.00000E+000	-4.46537E-001	0.00000E+000	8	...........	1367.57
	73	0.148	-4.55414E-001	-2.69959E-005	0.00000E+000	-4.56584E-001	0.00000E+000	8	...........	1367.57
	74	0.15	-4.65431E-001	-2.62337E-005	0.00000E+000	-4.66582E-001	0.00000E+000	8	...........	1367.57
	75	0.152	-4.75428E-001	-2.55541E-005	0.00000E+000	-4.76579E-001	0.00000E+000	8	...........	1367.57
	76	0.154	-4.85417E-001	-2.48799E-005	0.00000E+000	-4.86576E-001	0.00000E+000	8	...........	1367.57
	77	0.156	-4.95413E-001	-2.41978E-005	0.00000E+000	-4.96574E-001	0.00000E+000	8	...........	1367.57
	78	0.158	-5.05415E-001	-2.35498E-005	0.00000E+000	-5.06571E-001	0.00000E+000	8	...........	1367.57
	79	0.16	-5.15400E-001	-2.28859E-005	0.00000E+000	-5.16569E-001	0.00000E+000	8	...........	1367.57
	80	0.162	-5.25405E-001	-2.22835E-005	0.00000E+000	-5.26566E-001	0.00000E+000	8	...........	1367.57
	81	0.164	-5.35386E-001	-2.16828E-005	0.00000E+000	-5.36564E-001	0.00000E+000	8	...........	1367.57
	82	0.166	-5.45400E-001	-2.10993E-005	0.00000E+000	-5.46561E-001	0.00000E+000	8	...........	1367.57
	83	0.168	-5.55393E-001	-2.05460E-005	0.00000E+000	-5.56559E-001	0.00000E+000	8	...........	1367.57
	84	0.17	-5.65401E-001	-2.00118E-005	0.00000E+000	-5.66556E-001	0.00000E+000	8	...........	1367.57
	85	0.172	-5.75388E-001	-1.95010E-005	0.00000E+000	-5.76553E-001	0.00000E+000	8	...........	1367.57
	86	0.174	-5.85389E-001	-1.90180E-005	0.00000E+000	-5.86551E-001	0.00000E+000	8	...........	1367.57
	87	0.176	-5.95390E-001	-1.85853E-005	0.00000E+000	-5.96548E-001	0.00000E+000	8	...........	1367.57
	88	0.178	-5.87750E-001	2.96219E-006	0.00000E+000	-5.86551E-001	0.00000E+000	8	...........	1367.57
	89	0.18	-5.77744E-001	5.19497E-006	0.00000E+000	-5.76553E-001	0.00000E+000	8	...........	1367.57
	90	0.182	-5.67754E-001	6.65356E-006	0.00000E+000	-5.66556E-001	0.00000E+000	8	...........	1367.57
	91	0.184	-5.57757E-001	7.80889E-006	0.00000E+000	-5.56559E-001	0.00000E+000	8	...........	1367.57
	92	0.186	-5.47751E-001	8.77752E-006	0.00000E+000	-5.46561E-001	0.00000E+000	8	...........	1367.57
	93	0.188	-5.37753E-001	9.65734E-006	0.00000E+000	-5.36564E-001	0.00000E+000	8	...........	1367.57
	94	0.19	-5.27754E-001	1.04665E-005	0.00000E+000	-5.26566E-001	0.00000E+000	8	...........	1367.57
	95	0.192	-5.17763E-001	1.12371E-005	0.00000E+000	-5.16569E-001	0.00000E+000	8	...........	1367.57
	96	0.194	-5.07768E-001	1.19603E-005	0.00000E+000	-5.06571E-001	0.00000E+000	8	...........	1367.57
	97	0.196	-4.97781E-001	1.26938E-005	0.00000E+000	-4.96574E-001	0.00000E+000	8	...........	1367.57
	98	0.198	-4.87778E-001	1.33995E-005	0.00000E+000	-4.86576E-001	0.00000E+000	8	...........	1367.57
	99	0.2	-4.77788E-001	1.41058E-005	0.00000E+000	-4.76579E-001	0.00000E+000	8	...........	1367.57
	100	0.202	-4.67791E-001	1.47784E-005	0.00000E+000	-4.66582E-001	0.00000E+000	8	...........	1367.57
	101	0.204	-4.57791E-001	1.54549E-005	0.00000E+000	-4.56584E-001	0.00000E+000	8	...........	1367.57
	102	0.206	-4.47735E-001	1.61923E-005	0.00000E+000	-4.46537E-001	0.00000E+000	8	...........	1367.57
	103	0.208	-4.37754E-001	1.67553E-005	0.00000E+000	-4.36539E-001	0.00000E+000	8	...........	1367.57
	104	0.21	-4.27745E-001	1.74140E-005	0.00000E+000	-4.26542E-001	0.00000E+000	8	...........	1367.57
	105	0.212	-4.17741E-001	1.80256E-005	0.00000E+000	-4.16544E-001	0.00000E+000	8	...........	1367.57
	106	0.214	-4.07733E-001	1.86329E-005	0.00000E+000	-4.06547E-001	0.00000E+000	8	...........	1367.57
	107	0.216	-3.97727E-001	1.92307E-005	0.00000E+000	-3.96550E-001	0.00000E+000	8	...........	1367.57
	108	0.218	-3.87747E-001	1.98262E-005	0.00000E+000	-3.86552E-001	0.00000E+000	8	...........	1367.57
	109	0.22	-3.77739E-001	2.04117E-005	0.00000E+000	-3.76555E-001	0.00000E+000	8	...........	1367.57
	110	0.222	-3.67739E-001	2.09890E-005	0.00000E+000	-3.66557E-001	0.00000E+000	8	...........	1367.57
	111	0.224	-3.57747E-001	2.15448E-005	0.00000E+000	-3.56560E-001	0.00000E+000	8	...........	1367.57
	112	0.226	-3.47758E-001	2.21085E-005	0.00000E+000	-3.46562E-001	0.00000E+000	8	...........	1367.57
	113	0.228	-3.37763E-001	2.26526E-005	0.00000E+000	-3.36565E-001	0.00000E+000	8	...........	1367.57
	114	0.23	-3.27739E-001	2.32055E-005	0.00000E+000	-3.26567E-001	0.00000E+000	8	...........	1367.57
	115	0.232	-3.17732E-001	2.37181E-005	0.00000E+000	-3.16570E-001	0.00000E+000	8	...........	1367.57
	116	0.234	-3.07748E-001	2.41861E-005	0.00000E+000	-3.06573E-001	0.00000E+000	8	...........	1367.57
	117	0.236	-2.97761E-001	2.47054E-005	0.00000E+000	-2.96575E-001	0.00000E+000	8	...........	1367.57
	118	0.238	-2.87750E-001	2.51517E-005	0.00000E+000	-2.86578E-001	0.00000E+000	8	...........	1367.57
	119	0.24	-2.77756E-001	2.55842E-005	0.00000E+000	-2.76580E-001	0.00000E+000	8	...........	1367.57
	120	0.242	-2.67766E-001	2.59789E-005	0.00000E+000	-2.66583E-001	0.00000E+000	8	...........	1367.57
	121	0.244	-2.57771E-001	2.63306E-005	0.00000E+000	-2.56585E-001	0.00000E+000	8	...........	1367.57
	122	0.246	-2.47722E-001	2.67942E-005	0.00000E+000	-2.46538E-001	0.00000E+000	8	...........	1367.57
	123	0.248	-2.37722E-001	2.70094E-005	0.00000E+000	-2.36540E-001	0.00000E+000	8	...........	1367.57
	124	0.25	-2.27724E-001	2.72809E-005	0.00000E+000	-2.26543E-001	0.00000E+000	8	...........	1367.57
	125	0.252	-2.17729E-001	2.75348E-005	0.00000E+000	-2.16546E-001	0.00000E+000	8	...........	1367.57
	126	0.254	-2.07735E-001	2.77441E-005	0.00000E+000	-2.06548E-001	0.00000E+000	8	...........	1367.57
	127	0.256	-1.97729E-001	2.79498E-005	0.00000E+000	-1.96551E-001	0.00000E+000	8	...........	1367.57
	128	0.258	-1.87727E-001	2.80946E-005	0.00000E+000	-1.86553E-001	0.00000E+000	8	...........	1367.57
	129	0.26	-1.77731E-001	2.82099E-005	0.00000E+000	-1.76556E-001	0.00000E+000	8	...........	1367.57
	130	0.262	-1.67739E-001	2.82963E-005	0.00000E+000	-1.66558E-001	0.00000E+000	8	...........	1367.57
	131	0.264	-1.57746E-001	2.83464E-005	0.00000E+000	-1.56561E-001	0.00000E+000	8	...........	1367.57
	132	0.266	-1.47734E-001	2.83616E-005	0.00000E+000	-1.46564E-001	0.00000E+000	8	...........	1367.57
	133	0.268	-1.37732E-001	2.83247E-005	0.00000E+000	-1.36566E-001	0.00000E+000	8	...........	1367.57
	134	0.27	-1.27744E-001	2.82765E-005	0.00000E+000	-1.26569E-001	0.00000E+000	8	...........	1367.57
	135	0.272	-1.17744E-001	2.81860E-005	0.00000E+000	-1.16571E-001	0.00000E+000	8	...........	1367.57
	136	0.274	-1.07759E-001	2.81053E-005	0.00000E+000	-1.06574E-001	0.00000E+000	8	...........	1367.57
	137	0.276	-9.77563E-002	2.79924E-005	0.00000E+000	-9.65763E-002	0.00000E+000	8	...........	1367.57
	138	0.278	-8.77595E-002	2.79295E-005	0.00000E+000	-8.65789E-002	0.00000E+000	8	...........	1367.57
	139	0.28	-7.77678E-002	2.78569E-005	0.00000E+000	-7.65814E-002	0.00000E+000	8	...........	1367.57
	140	0.282	-6.77574E-002	2.78431E-005	0.00000E+000	-6.65840E-002	0.00000E+000	8	...........	1367.57
	141	0.284	-5.77318E-002	2.79329E-005	0.00000E+000	-5.65366E-002	0.00000E+000	8	...........	1367.57
	142	0.286	-4.77163E-002	2.79218E-005	0.00000E+000	-4.65391E-002	0.00000E+000	8	...........	1367.57
	143	0.288	-3.77272E-002	2.80390E-005	0.00000E+000	-3.65417E-002	0.00000E+000	8	...........	1367.57
	144	0.29	-2.77329E-002	2.82241E-005	0.00000E+000	-2.65442E-002	0.00000E+000	8	...........	1367.57
	145	0.292	-1.77268E-002	2.84463E-005	0.00000E+000	-1.65468E-002	0.00000E+000	8	...........	1367.57
	146	0.294	-7.72235E-003	2.86003E-005	0.00000E+000	-6.54935E-003	0.00000E+000	8	...........	1367.57
	147	0.296	2.26937E-003	2.86013E-005	0.00000E+000	3.44809E-003	0.00000E+000	8	...........	1367.57
	148	0.298	1.22848E-002	2.85088E-005	0.00000E+000	1.34455E-002	0.00000E+000	8	...........	1367.57
	149	0.3	2.22672E-002	2.83807E-005	0.00000E+000	2.34430E-002	0.00000E+000	8	...........	1367.57
	150	0.302	3.22776E-002	2.82859E-005	0.00000E+000	3.34404E-002	0.00000E+000	8	...........	1367.57
	151	0.304	4.22795E-002	2.82217E-005	0.00000E+000	4.34379E-002	0.00000E+000	8	...........	1367.57
	152	0.306	5.22703E-002	2.82300E-005	0.00000E+000	5.34353E-002	0.00000E+000	8	...........	1367.57
	153	0.308	6.22731E-002	2.82696E-005	0.00000E+000	6.34327E-002	0.00000E+000	8	...........	1367.57
	154	0.31	7.22589E-002	2.83606E-005	0.00000E+000	7.34302E-002	0.00000E+000	8	...........	1367.57
	155	0.312	8.22743E-002	2.85134E-005	0.00000E+000	8.34276E-002	0.00000E+000	8	...........	1367.57
	156	0.314	9.22660E-002	2.86798E-005	0.00000E+000	9.34251E-002	0.00000E+000	8	...........	1367.57
	157	0.316	1.02272E-001	2.88874E-005	0.00000E+000	1.03423E-001	0.00000E+000	8	...........	1367.57
	158	0.318	1.12266E-001	2.91479E-005	0.00000E+000	1.13420E-001	0.00000E+000	8	...........	1367.57
	159	0.32	1.22265E-001	2.94522E-005	0.00000E+000	1.23417E-001	0.00000E+000	8	...........	1367.57
	160	0.322	1.32272E-001	2.98013E-005	0.00000E+000	1.33415E-001	0.00000E+000	8	...........	1367.57
	161	0.324	1.42316E-001	3.02987E-005	0.00000E+000	1.43462E-001	0.00000E+000	8	...........	1367.57
	162	0.326	1.52305E-001	3.06640E-005	0.00000E+000	1.53460E-001	0.00000E+000	8	...........	1367.57
	163	0.328	1.62295E-001	3.11997E-005	0.00000E+000	1.63457E-001	0.00000E+000	8	...........	1367.57
	164	0.33	1.72314E-001	3.18291E-005	0.00000E+000	1.73455E-001	0.00000E+000	8	...........	1367.57
	165	0.332	1.82310E-001	3.25687E-005	0.00000E+000	1.83452E-001	0.00000E+000	8	...........	1367.57
	166	0.334	1.92311E-001	3.34679E-005	0.00000E+000	1.93449E-001	0.00000E+000	8	...........	1367.57
	167	0.336	2.02309E-001	3.45384E-005	0.00000E+000	2.03447E-001	0.00000E+000	8	...........	1367.57
	168	0.338	2.12284E-001	3.58429E-005	0.00000E+000	2.13444E-001	0.00000E+000	8	...........	1367.57
	169	0.34	2.22304E-001	3.73026E-005	0.00000E+000	2.23442E-001	0.00000E+000	8	...........	1367.57
	170	0.342	2.32320E-001	3.87582E-005	0.00000E+000	2.33439E-001	0.00000E+000	8	...........	1367.57
	171	0.344	2.42297E-001	3.99458E-005	0.00000E+000	2.43437E-001	0.00000E+000	8	...........	1367.57
	172	0.346	2.52310E-001	4.07411E-005	0.00000E+000	2.53434E-001	0.00000E+000	8	...........	1367.57
	173	0.348	2.62304E-001	4.12054E-005	0.00000E+000	2.63432E-001	0.00000E+000	8	...........	1367.57
	174	0.35	2.72291E-001	4.15969E-005	0.00000E+000	2.73429E-001	0.00000E+000	8	...........	1367.57
	175	0.352	2.82315E-001	4.19826E-005	0.00000E+000	2.83426E-001	0.00000E+000	8	...........	1367.57
	176	0.354	2.92310E-001	4.22606E-005	0.00000E+000	2.93424E-001	0.00000E+000	8	...........	1367.57
	177	0.356	3.02309E-001	4.23948E-005	0.00000E+000	3.03421E-001	0.00000E+000	8	...........	1367.57
	178	0.358	3.12312E-001	4.23819E-005	0.00000E+000	3.13419E-001	0.00000E+000	8	...........	1367.57
	179	0.36	3.22305E-001	4.23566E-005	0.00000E+000	3.23416E-001	0.00000E+000	8	...........	1367.57
	180	0.362	3.32357E-001	4.23983E-005	0.00000E+000	3.33464E-001	0.00000E+000	8	...........	1367.57
	181	0.364	3.42343E-001	4.21591E-005	0.00000E+000	3.43461E-001	0.00000E+000	8	...........	1367.57
	182	0.366	3.52342E-001	4.19577E-005	0.00000E+000	3.53458E-001	0.00000E+000	8	...........	1367.57
	183	0.368	3.62337E-001	4.17240E-005	0.00000E+000	3.63456E-001	0.00000E+000	8	...........	1367.57
	184	0.37	3.72347E-001	4.14809E-005	0.00000E+000	3.73453E-001	0.00000E+000	8	...........	1367.57
	185	0.372	3.82328E-001	4.12167E-005	0.00000E+000	3.83451E-001	0.00000E+000	8	...........	1367.57
	186	0.374	3.92329E-001	4.10122E-005	0.00000E+000	3.93448E-001	0.00000E+000	8	...........	1367.57
	187	0.376	4.02341E-001	4.08253E-005	0.00000E+000	4.03446E-001	0.00000E+000	8	...........	1367.57
	188	0.378	4.12346E-001	4.06583E-005	0.00000E+000	4.13443E-001	0.00000E+000	8	...........	1367.57
	189	0.38	4.22340E-001	4.04415E-005	0.00000E+000	4.23441E-001	0.00000E+000	8	...........	1367.57
	190	0.382	4.32330E-001	4.00674E-005	0.00000E+000	4.33438E-001	0.00000E+000	8	...........	1367.57
	191	0.384	4.42314E-001	3.96047E-005	0.00000E+000	4.43435E-001	0.00000E+000	8	...........	1367.57
	192	0.386	4.52314E-001	3.90724E-005	0.00000E+000	4.53433E-001	0.00000E+000	8	...........	1367.57
	193	0.388	4.62321E-001	3.84795E-005	0.00000E+000	4.63430E-001	0.00000E+000	8	...........	1367.57
	194	0.39	4.72311E-001	3.78820E-005	0.00000E+000	4.73428E-001	0.00000E+000	8	...........	1367.57
	195	0.392	4.82316E-001	3.73054E-005	0.00000E+000	4.83425E-001	0.00000E+000	8	...........	1367.57
	196	0.394	4.92312E-001	3.67231E-005	0.00000E+000	4.93423E-001	0.00000E+000	8	...........	1367.57
	197	0.396	5.02317E-001	3.61297E-005	0.00000E+000	5.03420E-001	0.00000E+000	8	...........	1367.57
	198	0.398	5.12309E-001	3.55217E-005	0.00000E+000	5.13418E-001	0.00000E+000	8	...........	1367.57
	199	0.4	5.22295E-001	3.49668E-005	0.00000E+000	5.23415E-001	0.00000E+000	8	...........	1367.57
	200	0.402	5.32348E-001	3.45525E-005	0.00000E+000	5.33462E-001	0.00000E+000	8	...........	1367.57
	201	0.404	5.42363E-001	3.39313E-005	0.00000E+000	5.43460E-001	0.00000E+000	8	...........	1367.57
	202	0.406	5.52351E-001	3.34490E-005	0.00000E+000	5.53457E-001	0.00000E+000	8	...........	1367.57
	203	0.408	5.62362E-001	3.29834E-005	0.00000E+000	5.63455E-001	0.00000E+000	8	...........	1367.57
	204	0.41	5.72346E-001	3.25936E-005	0.00000E+000	5.73452E-001	0.00000E+000	8	...........	1367.57
	205	0.412	5.82357E-001	3.22279E-005	0.00000E+000	5.83450E-001	0.00000E+000	8	...........	1367.57
	206	0.414	5.92349E-001	3.18715E-005	0.00000E+000	5.93447E-001	0.00000E+000	8	...........	1367.57
	207	0.416	6.02342E-001	3.15639E-005	0.00000E+000	6.03445E-001	0.00000E+000	8	...........	1367.57
	208	0.418	6.12330E-001	3.12706E-005	0.00000E+000	6.13442E-001	0.00000E+000	8	...........	1367.57
	209	0.42	6.22342E-001	3.10153E-005	0.00000E+000	6.23439E-001	0.00000E+000	8	...........	1367.57
	210	0.422	6.32354E-001	3.07472E-005	0.00000E+000	6.33437E-001	0.00000E+000	8	...........	1367.57
	211	0.424	6.42348E-001	3.04507E-005	0.00000E+000	6.43434E-001	0.00000E+000	8	...........	1367.57
	212	0.426	6.52362E-001	3.01058E-005	0.00000E+000	6.53432E-001	0.00000E+000	8	...........	1367.57
	213	0.428	6.62347E-001	2.96540E-005	0.00000E+000	6.63429E-001	0.00000E+000	8	...........	1367.57
	214	0.43	6.72352E-001	2.91315E-005	0.00000E+000	6.73427E-001	0.00000E+000	8	...........	1367.57
	215	0.432	6.82363E-001	2.85769E-005	0.00000E+000	6.83424E-001	0.00000E+000	8	...........	1367.57
	216	0.434	6.92342E-001	2.80338E-005	0.00000E+000	6.93421E-001	0.00000E+000	8	...........	1367.57
	217	0.436	7.02345E-001	2.75349E-005	0.00000E+000	7.03419E-001	0.00000E+000	8	...........	1367.57
	218	0.438	7.12356E-001	2.70852E-005	0.00000E+000	7.13416E-001	0.00000E+000	8	...........	1367.57
	219	0.44	7.22393E-001	2.67555E-005	0.00000E+000	7.23464E-001	0.00000E+000	8	...........	1367.57
	220	0.442	7.32389E-001	2.64036E-005	0.00000E+000	7.33461E-001	0.00000E+000	8	...........	1367.57
	221	0.444	7.42388E-001	2.61734E-005	0.00000E+000	7.43459E-001	0.00000E+000	8	...........	1367.57
	222	0.446	7.52367E-001	2.60298E-005	0.00000E+000	7.53456E-001	0.00000E+000	8	...........	1367.57
	223	0.448	7.62355E-001	2.60098E-005	0.00000E+000	7.63454E-001	0.00000E+000	8	...........	1367.57
	224	0.45	7.72367E-001	2.61177E-005	0.00000E+000	7.73451E-001	0.00000E+000	8	...........	1367.57
	225	0.452	7.82366E-001	2.64046E-005	0.00000E+000	7.83448E-001	0.00000E+000	8	...........	1367.57
	226	0.454	7.92364E-001	2.69075E-005	0.00000E+000	7.93446E-001	0.00000E+000	8	...........	1367.57
	227	0.456	8.02365E-001	2.76298E-005	0.00000E+000	8.03443E-001	0.00000E+000	8	...........	1367.57
CURVE2	TABLE
	Pt	T	Vf	Im	Vu	Sig	Ach	IERange	Over	Temp
	#	s	V vs. Ref.	A	V	V	V	#	bits	deg C
	228	0.458	7.91685E-001	-3.30863E-006	0.00000E+000	7.89997E-001	0.00000E+000	8	...........	1367.57
	229	0.46	7.81271E-001	-4.91615E-006	0.00000E+000	7.79999E-001	0.00000E+000	8	...........	1367.57
	230	0.462	7.71291E-001	-7.50294E-006	0.00000E+000	7.70002E-001	0.00000E+000	8	...........	1367.57
	231	0.464	7.61272E-001	-9.43305E-006	0.00000E+000	7.60004E-001	0.00000E+000	8	...........	1367.57
	232	0.466	7.51284E-001	-1.10133E-005	0.00000E+000	7.50007E-001	0.00000E+000	8	...........	1367.57
	233	0.468	7.41277E-001	-1.23596E-005	0.00000E+000	7.40010E-001	0.00000E+000	8	...........	1367.57
	234	0.47	7.31301E-001	-1.35764E-005	0.00000E+000	7.30012E-001	0.00000E+000	8	...........	1367.57
	235	0.472	7.21286E-001	-1.47241E-005	0.00000E+000	7.20015E-001	0.00000E+000	8	...........	1367.57
	236	0.474	7.11306E-001	-1.57930E-005	0.00000E+000	7.10017E-001	0.00000E+000	8	...........	1367.57
	237	0.476	7.01295E-001	-1.68913E-005	0.00000E+000	7.00020E-001	0.00000E+000	8	...........	1367.57
	238	0.478	6.91293E-001	-1.79498E-005	0.00000E+000	6.90022E-001	0.00000E+000	8	...........	1367.57
	239	0.48	6.81309E-001	-1.90026E-005	0.00000E+000	6.80025E-001	0.00000E+000	8	...........	1367.57
	240	0.482	6.71263E-001	-2.01364E-005	0.00000E+000	6.69977E-001	0.00000E+000	8	...........	1367.57
	241	0.484	6.61256E-001	-2.10774E-005	0.00000E+000	6.59980E-001	0.00000E+000	8	...........	1367.57
	242	0.486	6.51253E-001	-2.20419E-005	0.00000E+000	6.49983E-001	0.00000E+000	8	...........	1367.57
	243	0.488	6.41254E-001	-2.29350E-005	0.00000E+000	6.39985E-001	0.00000E+000	8	...........	1367.57
	244	0.49	6.31263E-001	-2.36642E-005	0.00000E+000	6.29988E-001	0.00000E+000	8	...........	1367.57
	245	0.492	6.21251E-001	-2.42601E-005	0.00000E+000	6.19990E-001	0.00000E+000	8	...........	1367.57
	246	0.494	6.11260E-001	-2.47196E-005	0.00000E+000	6.09993E-001	0.00000E+000	8	...........	1367.57
	247	0.496	6.01251E-001	-2.51508E-005	0.00000E+000	5.99995E-001	0.00000E+000	8	...........	1367.57
	248	0.498	5.91275E-001	-2.55589E-005	0.00000E+000	5.89998E-001	0.00000E+000	8	...........	1367.57
	249	0.5	5.81268E-001	-2.59915E-005	0.00000E+000	5.80001E-001	0.00000E+000	8	...........	1367.57
	250	0.502	5.71269E-001	-2.64354E-005	0.00000E+000	5.70003E-001	0.00000E+000	8	...........	1367.57
	251	0.504	5.61268E-001	-2.68958E-005	0.00000E+000	5.60006E-001	0.00000E+000	8	...........	1367.57
	252	0.506	5.51259E-001	-2.73756E-005	0.00000E+000	5.50008E-001	0.00000E+000	8	...........	1367.57
	253	0.508	5.41261E-001	-2.78987E-005	0.00000E+000	5.40011E-001	0.00000E+000	8	...........	1367.57
	254	0.51	5.31258E-001	-2.84395E-005	0.00000E+000	5.30013E-001	0.00000E+000	8	...........	1367.57
	255	0.512	5.21250E-001	-2.90495E-005	0.00000E+000	5.20016E-001	0.00000E+000	8	...........	1367.57
	256	0.514	5.11242E-001	-2.96968E-005	0.00000E+000	5.10018E-001	0.00000E+000	8	...........	1367.57
	257	0.516	5.01286E-001	-3.03396E-005	0.00000E+000	5.00021E-001	0.00000E+000	8	...........	1367.57
	258	0.518	4.91281E-001	-3.11025E-005	0.00000E+000	4.90024E-001	0.00000E+000	8	...........	1367.57
	259	0.52	4.81236E-001	-3.19950E-005	0.00000E+000	4.79976E-001	0.00000E+000	8	...........	1367.57
	260	0.522	4.71219E-001	-3.26929E-005	0.00000E+000	4.69979E-001	0.00000E+000	8	...........	1367.57
	261	0.524	4.61229E-001	-3.35058E-005	0.00000E+000	4.59981E-001	0.00000E+000	8	...........	1367.57
	262	0.526	4.51241E-001	-3.43193E-005	0.00000E+000	4.49984E-001	0.00000E+000	8	...........	1367.57
	263	0.528	4.41250E-001	-3.51648E-005	0.00000E+000	4.39986E-001	0.00000E+000	8	...........	1367.57
	264	0.53	4.31252E-001	-3.59975E-005	0.00000E+000	4.29989E-001	0.00000E+000	8	...........	1367.57
	265	0.532	4.21252E-001	-3.68229E-005	0.00000E+000	4.19991E-001	0.00000E+000	8	...........	1367.57
	266	0.534	4.11267E-001	-3.76307E-005	0.00000E+000	4.09994E-001	0.00000E+000	8	...........	1367.57
	267	0.536	4.01248E-001	-3.83741E-005	0.00000E+000	3.99997E-001	0.00000E+000	8	...........	1367.57
	268	0.538	3.91260E-001	-3.91040E-005	0.00000E+000	3.89999E-001	0.00000E+000	8	...........	1367.57
	269	0.54	3.81241E-001	-3.97062E-005	0.00000E+000	3.80002E-001	0.00000E+000	8	...........	1367.57
	270	0.542	3.71260E-001	-4.01620E-005	0.00000E+000	3.70004E-001	0.00000E+000	8	...........	1367.57
	271	0.544	3.61249E-001	-4.03600E-005	0.00000E+000	3.60007E-001	0.00000E+000	8	...........	1367.57
	272	0.546	3.51251E-001	-4.03817E-005	0.00000E+000	3.50009E-001	0.00000E+000	8	...........	1367.57
	273	0.548	3.41257E-001	-4.03507E-005	0.00000E+000	3.40012E-001	0.00000E+000	8	...........	1367.57
	274	0.55	3.31249E-001	-4.03609E-005	0.00000E+000	3.30014E-001	0.00000E+000	8	...........	1367.57
	275	0.552	3.21249E-001	-4.03811E-005	0.00000E+000	3.20017E-001	0.00000E+000	8	...........	1367.57
	276	0.554	3.11254E-001	-4.03738E-005	0.00000E+000	3.10020E-001	0.00000E+000	8	...........	1367.57
	277	0.556	3.01254E-001	-4.03112E-005	0.00000E+000	3.00022E-001	0.00000E+000	8	...........	1367.57
	278	0.558	2.91239E-001	-4.02489E-005	0.00000E+000	2.90025E-001	0.00000E+000	8	...........	1367.57
	279	0.56	2.81202E-001	-4.02337E-005	0.00000E+000	2.79977E-001	0.00000E+000	8	...........	1367.57
	280	0.562	2.71200E-001	-3.98896E-005	0.00000E+000	2.69980E-001	0.00000E+000	8	...........	1367.57
	281	0.564	2.61198E-001	-3.95832E-005	0.00000E+000	2.59982E-001	0.00000E+000	8	...........	1367.57
	282	0.566	2.51204E-001	-3.92478E-005	0.00000E+000	2.49985E-001	0.00000E+000	8	...........	1367.57
	283	0.568	2.41193E-001	-3.89273E-005	0.00000E+000	2.39988E-001	0.00000E+000	8	...........	1367.57
	284	0.57	2.31204E-001	-3.86708E-005	0.00000E+000	2.29990E-001	0.00000E+000	8	...........	1367.57
	285	0.572	2.21189E-001	-3.85244E-005	0.00000E+000	2.19993E-001	0.00000E+000	8	...........	1367.57
	286	0.574	2.11209E-001	-3.83036E-005	0.00000E+000	2.09995E-001	0.00000E+000	8	...........	1367.57
	287	0.576	2.01211E-001	-3.77128E-005	0.00000E+000	1.99998E-001	0.00000E+000	8	...........	1367.57
	288	0.578	1.91209E-001	-3.66907E-005	0.00000E+000	1.90000E-001	0.00000E+000	8	...........	1367.57
	289	0.58	1.81229E-001	-3.54914E-005	0.00000E+000	1.80003E-001	0.00000E+000	8	...........	1367.57
	290	0.582	1.71232E-001	-3.42851E-005	0.00000E+000	1.70005E-001	0.00000E+000	8	...........	1367.57
	291	0.584	1.61212E-001	-3.30996E-005	0.00000E+000	1.60008E-001	0.00000E+000	8	...........	1367.57
	292	0.586	1.51214E-001	-3.20273E-005	0.00000E+000	1.50011E-001	0.00000E+000	8	...........	1367.57
	293	0.588	1.41213E-001	-3.11315E-005	0.00000E+000	1.40013E-001	0.00000E+000	8	...........	1367.57
	294	0.59	1.31237E-001	-3.04019E-005	0.00000E+000	1.30016E-001	0.00000E+000	8	...........	1367.57
	295	0.592	1.21226E-001	-2.98126E-005	0.00000E+000	1.20018E-001	0.00000E+000	8	...........	1367.57
	296	0.594	1.11236E-001	-2.93274E-005	0.00000E+000	1.10021E-001	0.00000E+000	8	...........	1367.57
	297	0.596	1.01222E-001	-2.89327E-005	0.00000E+000	1.00023E-001	0.00000E+000	8	...........	1367.57
	298	0.598	9.11852E-002	-2.86753E-005	0.00000E+000	8.99759E-002	0.00000E+000	8	...........	1367.57
	299	0.6	8.11799E-002	-2.83230E-005	0.00000E+000	7.99785E-002	0.00000E+000	8	...........	1367.57
	300	0.602	7.11747E-002	-2.80973E-005	0.00000E+000	6.99811E-002	0.00000E+000	8	...........	1367.57
	301	0.604	6.11660E-002	-2.79348E-005	0.00000E+000	5.99836E-002	0.00000E+000	8	...........	1367.57
	302	0.606	5.11700E-002	-2.78240E-005	0.00000E+000	4.99862E-002	0.00000E+000	8	...........	1367.57
	303	0.608	4.11775E-002	-2.77556E-005	0.00000E+000	3.99887E-002	0.00000E+000	8	...........	1367.57
	304	0.61	3.11815E-002	-2.77554E-005	0.00000E+000	2.99913E-002	0.00000E+000	8	...........	1367.57
	305	0.612	2.11830E-002	-2.77854E-005	0.00000E+000	1.99939E-002	0.00000E+000	8	...........	1367.57
	306	0.614	1.11693E-002	-2.78846E-005	0.00000E+000	9.99641E-003	0.00000E+000	8	...........	1367.57
	307	0.616	1.17246E-003	-2.80589E-005	0.00000E+000	-1.02818E-006	0.00000E+000	8	...........	1367.57
	308	0.618	-8.84723E-003	-2.82752E-005	0.00000E+000	-9.99847E-003	0.00000E+000	8	...........	1367.57
	309	0.62	-1.88508E-002	-2.85943E-005	0.00000E+000	-1.99959E-002	0.00000E+000	8	...........	1367.57
	310	0.622	-2.88519E-002	-2.88930E-005	0.00000E+000	-2.99934E-002	0.00000E+000	8	...........	1367.57
	311	0.624	-3.88453E-002	-2.90967E-005	0.00000E+000	-3.99908E-002	0.00000E+000	8	...........	1367.57
	312	0.626	-4.88404E-002	-2.91583E-005	0.00000E+000	-4.99882E-002	0.00000E+000	8	...........	1367.57
	313	0.628	-5.88423E-002	-2.91716E-005	0.00000E+000	-5.99857E-002	0.00000E+000	8	...........	1367.57
	314	0.63	-6.88238E-002	-2.92185E-005	0.00000E+000	-6.99831E-002	0.00000E+000	8	...........	1367.57
	315	0.632	-7.88418E-002	-2.92692E-005	0.00000E+000	-7.99806E-002	0.00000E+000	8	...........	1367.57
	316	0.634	-8.88378E-002	-2.93804E-005	0.00000E+000	-8.99780E-002	0.00000E+000	8	...........	1367.57
	317	0.636	-9.88413E-002	-2.95471E-005	0.00000E+000	-9.99754E-002	0.00000E+000	8	...........	1367.57
	318	0.638	-1.08865E-001	-2.98206E-005	0.00000E+000	-1.10023E-001	0.00000E+000	8	...........	1367.57
	319	0.64	-1.18871E-001	-2.99786E-005	0.00000E+000	-1.20020E-001	0.00000E+000	8	...........	1367.57
	320	0.642	-1.28883E-001	-3.02251E-005	0.00000E+000	-1.30018E-001	0.00000E+000	8	...........	1367.57
	321	0.644	-1.38862E-001	-3.04811E-005	0.00000E+000	-1.40015E-001	0.00000E+000	8	...........	1367.57
	322	0.646	-1.48876E-001	-3.07625E-005	0.00000E+000	-1.50013E-001	0.00000E+000	8	...........	1367.57
	323	0.648	-1.58870E-001	-3.10529E-005	0.00000E+000	-1.60010E-001	0.00000E+000	8	...........	1367.57
	324	0.65	-1.68872E-001	-3.13518E-005	0.00000E+000	-1.70007E-001	0.00000E+000	8	...........	1367.57
	325	0.652	-1.78876E-001	-3.16670E-005	0.00000E+000	-1.80005E-001	0.00000E+000	8	...........	1367.57
	326	0.654	-1.88851E-001	-3.19578E-005	0.00000E+000	-1.90002E-001	0.00000E+000	8	...........	1367.57
	327	0.656	-1.98844E-001	-3.22935E-005	0.00000E+000	-2.00000E-001	0.00000E+000	8	...........	1367.57
	328	0.658	-2.08851E-001	-3.26161E-005	0.00000E+000	-2.09997E-001	0.00000E+000	8	...........	1367.57
	329	0.66	-2.18867E-001	-3.29008E-005	0.00000E+000	-2.19995E-001	0.00000E+000	8	...........	1367.57
	330	0.662	-2.28857E-001	-3.31760E-005	0.00000E+000	-2.29992E-001	0.00000E+000	8	...........	1367.57
	331	0.664	-2.38842E-001	-3.33905E-005	0.00000E+000	-2.39990E-001	0.00000E+000	8	...........	1367.57
	332	0.666	-2.48852E-001	-3.35852E-005	0.00000E+000	-2.49987E-001	0.00000E+000	8	...........	1367.57
	333	0.668	-2.58840E-001	-3.37062E-005	0.00000E+000	-2.59984E-001	0.00000E+000	8	...........	1367.57
	334	0.67	-2.68840E-001	-3.37654E-005	0.00000E+000	-2.69982E-001	0.00000E+000	8	...........	1367.57
	335	0.672	-2.78830E-001	-3.37496E-005	0.00000E+000	-2.79979E-001	0.00000E+000	8	...........	1367.57
[...]
	640	1.282	-5.28858E-001	-2.03200E-005	0.00000E+000	-5.30015E-001	0.00000E+000	8	...........	1367.91
	641	1.284	-5.38867E-001	-1.97449E-005	0.00000E+000	-5.40013E-001	0.00000E+000	8	...........	1367.91
	642	1.286	-5.48866E-001	-1.92057E-005	0.00000E+000	-5.50010E-001	0.00000E+000	8	...........	1367.91
	643	1.288	-5.58861E-001	-1.86916E-005	0.00000E+000	-5.60008E-001	0.00000E+000	8	...........	1367.91
	644	1.29	-5.68864E-001	-1.82209E-005	0.00000E+000	-5.70005E-001	0.00000E+000	8	...........	1367.91
	645	1.292	-5.78875E-001	-1.77870E-005	0.00000E+000	-5.80003E-001	0.00000E+000	8	...........	1367.91
	646	1.294	-5.88862E-001	-1.73981E-005	0.00000E+000	-5.90000E-001	0.00000E+000	8	...........	1367.91
	647	1.296	-5.98858E-001	-1.70300E-005	0.00000E+000	-5.99997E-001	0.00000E+000	8	...........	1367.91
	648	1.298	-5.91221E-001	3.85738E-006	0.00000E+000	-5.90000E-001	0.00000E+000	8	...........	1367.91
	649	1.3	-5.81218E-001	5.85680E-006	0.00000E+000	-5.80003E-001	0.00000E+000	8	...........	1367.91
	650	1.302	-5.71210E-001	7.15611E-006	0.00000E+000	-5.70005E-001	0.00000E+000	8	...........	1367.91
	651	1.304	-5.61214E-001	8.19550E-006	0.00000E+000	-5.60008E-001	0.00000E+000	8	...........	1367.91
	652	1.306	-5.51219E-001	9.08073E-006	0.00000E+000	-5.50010E-001	0.00000E+000	8	...........	1367.91
	653	1.308	-5.41220E-001	9.90060E-006	0.00000E+000	-5.40013E-001	0.00000E+000	8	...........	1367.91
	654	1.31	-5.31222E-001	1.06668E-005	0.00000E+000	-5.30015E-001	0.00000E+000	8	...........	1367.91
	655	1.312	-5.21218E-001	1.13853E-005	0.00000E+000	-5.20018E-001	0.00000E+000	8	...........	1367.91
	656	1.314	-5.11222E-001	1.20652E-005	0.00000E+000	-5.10020E-001	0.00000E+000	8	...........	1367.91
	657	1.316	-5.01240E-001	1.27727E-005	0.00000E+000	-5.00023E-001	0.00000E+000	8	...........	1367.91
	658	1.318	-4.91198E-001	1.35230E-005	0.00000E+000	-4.89976E-001	0.00000E+000	8	...........	1367.91
	659	1.32	-4.81191E-001	1.41325E-005	0.00000E+000	-4.79978E-001	0.00000E+000	8	...........	1367.91
	660	1.322	-4.71181E-001	1.47865E-005	0.00000E+000	-4.69981E-001	0.00000E+000	8	...........	1367.91
	661	1.324	-4.61188E-001	1.54318E-005	0.00000E+000	-4.59983E-001	0.00000E+000	8	...........	1367.91
	662	1.326	-4.51206E-001	1.60861E-005	0.00000E+000	-4.49986E-001	0.00000E+000	8	...........	1367.91
	663	1.328	-4.41196E-001	1.67134E-005	0.00000E+000	-4.39988E-001	0.00000E+000	8	...........	1367.91
	664	1.33	-4.31185E-001	1.73250E-005	0.00000E+000	-4.29991E-001	0.00000E+000	8	...........	1367.91
	665	1.332	-4.21193E-001	1.79404E-005	0.00000E+000	-4.19994E-001	0.00000E+000	8	...........	1367.91
	666	1.334	-4.11192E-001	1.85309E-005	0.00000E+000	-4.09996E-001	0.00000E+000	8	...........	1367.91
	667	1.336	-4.01183E-001	1.91322E-005	0.00000E+000	-3.99999E-001	0.00000E+000	8	...........	1367.91
	668	1.338	-3.91189E-001	1.97056E-005	0.00000E+000	-3.90001E-001	0.00000E+000	8	...........	1367.91
	669	1.34	-3.81199E-001	2.02776E-005	0.00000E+000	-3.80004E-001	0.00000E+000	8	...........	1367.91
	670	1.342	-3.71206E-001	2.08449E-005	0.00000E+000	-3.70006E-001	0.00000E+000	8	...........	1367.91
	671	1.344	-3.61221E-001	2.14013E-005	0.00000E+000	-3.60009E-001	0.00000E+000	8	...........	1367.91
	672	1.346	-3.51213E-001	2.19678E-005	0.00000E+000	-3.50011E-001	0.00000E+000	8	...........	1367.91
	673	1.348	-3.41210E-001	2.25208E-005	0.00000E+000	-3.40014E-001	0.00000E+000	8	...........	1367.91
	674	1.35	-3.31206E-001	2.30533E-005	0.00000E+000	-3.30017E-001	0.00000E+000	8	...........	1367.91
	675	1.352	-3.21201E-001	2.35873E-005	0.00000E+000	-3.20019E-001	0.00000E+000	8	...........	1367.91
	676	1.354	-3.11217E-001	2.40970E-005	0.00000E+000	-3.10022E-001	0.00000E+000	8	...........	1367.91
	677	1.356	-3.01221E-001	2.45699E-005	0.00000E+000	-3.00024E-001	0.00000E+000	8	...........	1367.91
	678	1.358	-2.91181E-001	2.51588E-005	0.00000E+000	-2.89977E-001	0.00000E+000	8	...........	1367.91
	679	1.36	-2.81172E-001	2.55067E-005	0.00000E+000	-2.79979E-001	0.00000E+000	8	...........	1367.91
	680	1.362	-2.71171E-001	2.59135E-005	0.00000E+000	-2.69982E-001	0.00000E+000	8	...........	1367.91
	681	1.364	-2.61188E-001	2.62878E-005	0.00000E+000	-2.59984E-001	0.00000E+000	8	...........	1367.91
	682	1.366	-2.51184E-001	2.66483E-005	0.00000E+000	-2.49987E-001	0.00000E+000	8	...........	1367.91
	683	1.368	-2.41180E-001	2.69715E-005	0.00000E+000	-2.39990E-001	0.00000E+000	8	...........	1367.91
	684	1.37	-2.31189E-001	2.72468E-005	0.00000E+000	-2.29992E-001	0.00000E+000	8	...........	1367.91
	685	1.372	-2.21199E-001	2.75338E-005	0.00000E+000	-2.19995E-001	0.00000E+000	8	...........	1367.91
	686	1.374	-2.11184E-001	2.77506E-005	0.00000E+000	-2.09997E-001	0.00000E+000	8	...........	1367.91
	687	1.376	-2.01193E-001	2.79624E-005	0.00000E+000	-2.00000E-001	0.00000E+000	8	...........	1367.91
	688	1.378	-1.91190E-001	2.81221E-005	0.00000E+000	-1.90002E-001	0.00000E+000	8	...........	1367.91
	689	1.38	-1.81201E-001	2.82464E-005	0.00000E+000	-1.80005E-001	0.00000E+000	8	...........	1367.91
	690	1.382	-1.71197E-001	2.83662E-005	0.00000E+000	-1.70007E-001	0.00000E+000	8	...........	1367.91
	691	1.384	-1.61191E-001	2.84191E-005	0.00000E+000	-1.60010E-001	0.00000E+000	8	...........	1367.91
	692	1.386	-1.51202E-001	2.84447E-005	0.00000E+000	-1.50013E-001	0.00000E+000	8	...........	1367.91
	693	1.388	-1.41208E-001	2.84294E-005	0.00000E+000	-1.40015E-001	0.00000E+000	8	...........	1367.91
	694	1.39	-1.31212E-001	2.83930E-005	0.00000E+000	-1.30018E-001	0.00000E+000	8	...........	1367.91
	695	1.392	-1.21221E-001	2.83306E-005	0.00000E+000	-1.20020E-001	0.00000E+000	8	...........	1367.91
	696	1.394	-1.11207E-001	2.82484E-005	0.00000E+000	-1.10023E-001	0.00000E+000	8	...........	1367.91
	697	1.396	-1.01174E-001	2.82311E-005	0.00000E+000	-9.99754E-002	0.00000E+000	8	...........	1367.91
	698	1.398	-9.11511E-002	2.80768E-005	0.00000E+000	-8.99780E-002	0.00000E+000	8	...........	1367.91
	699	1.4	-8.11755E-002	2.80140E-005	0.00000E+000	-7.99806E-002	0.00000E+000	8	...........	1367.91
	700	1.402	-7.11745E-002	2.79727E-005	0.00000E+000	-6.99831E-002	0.00000E+000	8	...........	1367.91
	701	1.404	-6.11726E-002	2.79643E-005	0.00000E+000	-5.99857E-002	0.00000E+000	8	...........	1367.91
	702	1.406	-5.11639E-002	2.80030E-005	0.00000E+000	-4.99882E-002	0.00000E+000	8	...........	1367.91
	703	1.408	-4.11874E-002	2.80984E-005	0.00000E+000	-3.99908E-002	0.00000E+000	8	...........	1367.91
	704	1.41	-3.11974E-002	2.82753E-005	0.00000E+000	-2.99934E-002	0.00000E+000	8	...........	1367.91
	705	1.412	-2.11820E-002	2.84990E-005	0.00000E+000	-1.99959E-002	0.00000E+000	8	...........	1367.91
	706	1.414	-1.11809E-002	2.87042E-005	0.00000E+000	-9.99847E-003	0.00000E+000	8	...........	1367.91
	707	1.416	-1.16886E-003	2.87932E-005	0.00000E+000	-1.02818E-006	0.00000E+000	8	...........	1367.91
	708	1.418	8.82709E-003	2.87982E-005	0.00000E+000	9.99641E-003	0.00000E+000	8	...........	1367.91
	709	1.42	1.88307E-002	2.86809E-005	0.00000E+000	1.99939E-002	0.00000E+000	8	...........	1367.91
	710	1.422	2.88402E-002	2.85785E-005	0.00000E+000	2.99913E-002	0.00000E+000	8	...........	1367.91
	711	1.424	3.88421E-002	2.85084E-005	0.00000E+000	3.99887E-002	0.00000E+000	8	...........	1367.91
	712	1.426	4.88380E-002	2.84881E-005	0.00000E+000	4.99862E-002	0.00000E+000	8	...........	1367.91
	713	1.428	5.88170E-002	2.85236E-005	0.00000E+000	5.99836E-002	0.00000E+000	8	...........	1367.91
	714	1.43	6.88291E-002	2.86025E-005	0.00000E+000	6.99811E-002	0.00000E+000	8	...........	1367.91
	715	1.432	7.88446E-002	2.87265E-005	0.00000E+000	7.99785E-002	0.00000E+000	8	...........	1367.91
	716	1.434	8.88236E-002	2.88798E-005	0.00000E+000	8.99759E-002	0.00000E+000	8	...........	1367.91
	717	1.436	9.88602E-002	2.91802E-005	0.00000E+000	1.00023E-001	0.00000E+000	8	...........	1367.91
	718	1.438	1.08888E-001	2.93484E-005	0.00000E+000	1.10021E-001	0.00000E+000	8	...........	1367.91
	719	1.44	1.18878E-001	2.96313E-005	0.00000E+000	1.20018E-001	0.00000E+000	8	...........	1367.91
	720	1.442	1.28879E-001	2.99440E-005	0.00000E+000	1.30016E-001	0.00000E+000	8	...........	1367.91
	721	1.444	1.38879E-001	3.03237E-005	0.00000E+000	1.40013E-001	0.00000E+000	8	...........	1367.91
	722	1.446	1.48860E-001	3.07515E-005	0.00000E+000	1.50011E-001	0.00000E+000	8	...........	1367.91
	723	1.448	1.58865E-001	3.12380E-005	0.00000E+000	1.60008E-001	0.00000E+000	8	...........	1367.91
	724	1.45	1.68871E-001	3.18228E-005	0.00000E+000	1.70005E-001	0.00000E+000	8	...........	1367.91
	725	1.452	1.78867E-001	3.25041E-005	0.00000E+000	1.80003E-001	0.00000E+000	8	...........	1367.91
	726	1.454	1.88870E-001	3.33271E-005	0.00000E+000	1.90000E-001	0.00000E+000	8	...........	1367.91
	727	1.456	1.98860E-001	3.43281E-005	0.00000E+000	1.99998E-001	0.00000E+000	8	...........	1367.91
	728	1.458	2.08847E-001	3.55527E-005	0.00000E+000	2.09995E-001	0.00000E+000	8	...........	1367.91
	729	1.46	2.18856E-001	3.70160E-005	0.00000E+000	2.19993E-001	0.00000E+000	8	...........	1367.91
	730	1.462	2.28859E-001	3.86608E-005	0.00000E+000	2.29990E-001	0.00000E+000	8	...........	1367.91
	731	1.464	2.38846E-001	4.02903E-005	0.00000E+000	2.39988E-001	0.00000E+000	8	...........	1367.91
	732	1.466	2.48855E-001	4.15213E-005	0.00000E+000	2.49985E-001	0.00000E+000	8	...........	1367.91
	733	1.468	2.58854E-001	4.22227E-005	0.00000E+000	2.59982E-001	0.00000E+000	8	...........	1367.91
	734	1.47	2.68850E-001	4.26051E-005	0.00000E+000	2.69980E-001	0.00000E+000	8	...........	1367.91
	735	1.472	2.78848E-001	4.29406E-005	0.00000E+000	2.79977E-001	0.00000E+000	8	...........	1367.91
	736	1.474	2.88899E-001	4.34293E-005	0.00000E+000	2.90025E-001	0.00000E+000	8	...........	1367.91
	737	1.476	2.98897E-001	4.35161E-005	0.00000E+000	3.00022E-001	0.00000E+000	8	...........	1367.91
	738	1.478	3.08902E-001	4.34678E-005	0.00000E+000	3.10020E-001	0.00000E+000	8	...........	1367.91
	739	1.48	3.18907E-001	4.34019E-005	0.00000E+000	3.20017E-001	0.00000E+000	8	...........	1367.91
	740	1.482	3.28879E-001	4.33154E-005	0.00000E+000	3.30014E-001	0.00000E+000	8	...........	1367.91
	741	1.484	3.38885E-001	4.31762E-005	0.00000E+000	3.40012E-001	0.00000E+000	8	...........	1367.91
	742	1.486	3.48897E-001	4.29967E-005	0.00000E+000	3.50009E-001	0.00000E+000	8	...........	1367.91
	743	1.488	3.58876E-001	4.27552E-005	0.00000E+000	3.60007E-001	0.00000E+000	8	...........	1367.91
	744	1.49	3.68881E-001	4.25091E-005	0.00000E+000	3.70004E-001	0.00000E+000	8	...........	1367.91
	745	1.492	3.78875E-001	4.22524E-005	0.00000E+000	3.80002E-001	0.00000E+000	8	...........	1367.91
	746	1.494	3.88885E-001	4.19980E-005	0.00000E+000	3.89999E-001	0.00000E+000	8	...........	1367.91
	747	1.496	3.98880E-001	4.17689E-005	0.00000E+000	3.99997E-001	0.00000E+000	8	...........	1367.91
	748	1.498	4.08885E-001	4.16069E-005	0.00000E+000	4.09994E-001	0.00000E+000	8	...........	1367.91
	749	1.5	4.18883E-001	4.14494E-005	0.00000E+000	4.19991E-001	0.00000E+000	8	...........	1367.91
	750	1.502	4.28884E-001	4.11364E-005	0.00000E+000	4.29989E-001	0.00000E+000	8	...........	1367.91
	751	1.504	4.38885E-001	4.06477E-005	0.00000E+000	4.39986E-001	0.00000E+000	8	...........	1367.91
	752	1.506	4.48875E-001	4.00507E-005	0.00000E+000	4.49984E-001	0.00000E+000	8	...........	1367.91
	753	1.508	4.58868E-001	3.94055E-005	0.00000E+000	4.59981E-001	0.00000E+000	8	...........	1367.91
	754	1.51	4.68872E-001	3.87590E-005	0.00000E+000	4.69979E-001	0.00000E+000	8	...........	1367.91
	755	1.512	4.78877E-001	3.80856E-005	0.00000E+000	4.79976E-001	0.00000E+000	8	...........	1367.91
	756	1.514	4.88938E-001	3.75394E-005	0.00000E+000	4.90024E-001	0.00000E+000	8	...........	1367.91
	757	1.516	4.98932E-001	3.67470E-005	0.00000E+000	5.00021E-001	0.00000E+000	8	...........	1367.91
	758	1.518	5.08907E-001	3.60426E-005	0.00000E+000	5.10018E-001	0.00000E+000	8	...........	1367.91
	759	1.52	5.18918E-001	3.54101E-005	0.00000E+000	5.20016E-001	0.00000E+000	8	...........	1367.91
	760	1.522	5.28918E-001	3.47854E-005	0.00000E+000	5.30013E-001	0.00000E+000	8	...........	1367.91
	761	1.524	5.38915E-001	3.41737E-005	0.00000E+000	5.40011E-001	0.00000E+000	8	...........	1367.91
	762	1.526	5.48915E-001	3.36141E-005	0.00000E+000	5.50008E-001	0.00000E+000	8	...........	1367.91
	763	1.528	5.58904E-001	3.30927E-005	0.00000E+000	5.60006E-001	0.00000E+000	8	...........	1367.91
	764	1.53	5.68912E-001	3.26258E-005	0.00000E+000	5.70003E-001	0.00000E+000	8	...........	1367.91
	765	1.532	5.78930E-001	3.21832E-005	0.00000E+000	5.80001E-001	0.00000E+000	8	...........	1367.91
	766	1.534	5.88911E-001	3.17835E-005	0.00000E+000	5.89998E-001	0.00000E+000	8	...........	1367.91
	767	1.536	5.98895E-001	3.14063E-005	0.00000E+000	5.99995E-001	0.00000E+000	8	...........	1367.91
	768	1.538	6.08904E-001	3.10758E-005	0.00000E+000	6.09993E-001	0.00000E+000	8	...........	1367.91
	769	1.54	6.18909E-001	3.07625E-005	0.00000E+000	6.19990E-001	0.00000E+000	8	...........	1367.91
	770	1.542	6.28917E-001	3.04646E-005	0.00000E+000	6.29988E-001	0.00000E+000	8	...........	1367.91
	771	1.544	6.38915E-001	3.01544E-005	0.00000E+000	6.39985E-001	0.00000E+000	8	...........	1367.91
	772	1.546	6.48905E-001	2.98179E-005	0.00000E+000	6.49983E-001	0.00000E+000	8	...........	1367.91
	773	1.548	6.58895E-001	2.93908E-005	0.00000E+000	6.59980E-001	0.00000E+000	8	...........	1367.91
	774	1.55	6.68892E-001	2.88827E-005	0.00000E+000	6.69977E-001	0.00000E+000	8	...........	1367.91
	775	1.552	6.78957E-001	2.84120E-005	0.00000E+000	6.80025E-001	0.00000E+000	8	...........	1367.91
	776	1.554	6.88945E-001	2.77798E-005	0.00000E+000	6.90022E-001	0.00000E+000	8	...........	1367.91
	777	1.556	6.98942E-001	2.72614E-005	0.00000E+000	7.00020E-001	0.00000E+000	8	...........	1367.91
	778	1.558	7.08953E-001	2.67827E-005	0.00000E+000	7.10017E-001	0.00000E+000	8	...........	1367.91
	779	1.56	7.18943E-001	2.63452E-005	0.00000E+000	7.20015E-001	0.00000E+000	8	...........	1367.91
	780	1.562	7.28945E-001	2.60306E-005	0.00000E+000	7.30012E-001	0.00000E+000	8	...........	1367.91
	781	1.564	7.38923E-001	2.57702E-005	0.00000E+000	7.40010E-001	0.00000E+000	8	...........	1367.91
	782	1.566	7.48930E-001	2.56019E-005	0.00000E+000	7.50007E-001	0.00000E+000	8	...........	1367.91
	783	1.568	7.58935E-001	2.55277E-005	0.00000E+000	7.60004E-001	0.00000E+000	8	...........	1367.91
	784	1.57	7.68943E-001	2.55783E-005	0.00000E+000	7.70002E-001	0.00000E+000	8	...........	1367.91
	785	1.572	7.78918E-001	2.57923E-005	0.00000E+000	7.79999E-001	0.00000E+000	8	...........	1367.91
	786	1.574	7.88932E-001	2.62208E-005	0.00000E+000	7.89997E-001	0.00000E+000	8	...........	1367.91
	787	1.576	7.98930E-001	2.68479E-005	0.00000E+000	7.99994E-001	0.00000E+000	8	...........	1367.91
CURVE4	TABLE
	Pt	T	Vf	Im	Vu	Sig	Ach	IERange	Over	Temp
	#	s	V vs. Ref.	A	V	V	V	#	bits	deg C
	788	1.578	7.91297E-001	5.10271E-007	0.00000E+000	7.89997E-001	0.00000E+000	8	...........	1367.91
	789	1.58	7.81265E-001	-4.56321E-006	0.00000E+000	7.79999E-001	0.00000E+000	8	...........	1367.91
	790	1.582	7.71300E-001	-7.43394E-006	0.00000E+000	7.70002E-001	0.00000E+000	8	...........	1367.91
	791	1.584	7.61296E-001	-9.46174E-006	0.00000E+000	7.60004E-001	0.00000E+000	8	...........	1367.91
	792	1.586	7.51284E-001	-1.10641E-005	0.00000E+000	7.50007E-001	0.00000E+000	8	...........	1367.91
	793	1.588	7.41284E-001	-1.24401E-005	0.00000E+000	7.40010E-001	0.00000E+000	8	...........	1367.91
	794	1.59	7.31309E-001	-1.36640E-005	0.00000E+000	7.30012E-001	0.00000E+000	8	...........	1367.91
	795	1.592	7.21304E-001	-1.48122E-005	0.00000E+000	7.20015E-001	0.00000E+000	8	...........	1367.91
	796	1.594	7.11293E-001	-1.58962E-005	0.00000E+000	7.10017E-001	0.00000E+000	8	...........	1367.91
	797	1.596	7.01307E-001	-1.69942E-005	0.00000E+000	7.00020E-001	0.00000E+000	8	...........	1367.91
	798	1.598	6.91291E-001	-1.80664E-005	0.00000E+000	6.90022E-001	0.00000E+000	8	...........	1367.91
	799	1.6	6.81315E-001	-1.91262E-005	0.00000E+000	6.80025E-001	0.00000E+000	8	...........	1367.91
	800	1.602	6.71263E-001	-2.02601E-005	0.00000E+000	6.69977E-001	0.00000E+000	8	...........	1367.91
	801	1.604	6.61261E-001	-2.12170E-005	0.00000E+000	6.59980E-001	0.00000E+000	8	...........	1367.91
	802	1.606	6.51258E-001	-2.21659E-005	0.00000E+000	6.49983E-001	0.00000E+000	8	...........	1367.91
	803	1.608	6.41265E-001	-2.30527E-005	0.00000E+000	6.39985E-001	0.00000E+000	8	...........	1367.91
	804	1.61	6.31269E-001	-2.37740E-005	0.00000E+000	6.29988E-001	0.00000E+000	8	...........	1367.91
	805	1.612	6.21257E-001	-2.43671E-005	0.00000E+000	6.19990E-001	0.00000E+000	8	...........	1367.91
	806	1.614	6.11269E-001	-2.48374E-005	0.00000E+000	6.09993E-001	0.00000E+000	8	...........	1367.91
	807	1.616	6.01272E-001	-2.52889E-005	0.00000E+000	5.99995E-001	0.00000E+000	8	...........	1367.91
	808	1.618	5.91278E-001	-2.57081E-005	0.00000E+000	5.89998E-001	0.00000E+000	8	...........	1367.91
	809	1.62	5.81281E-001	-2.61527E-005	0.00000E+000	5.80001E-001	0.00000E+000	8	...........	1367.91
	810	1.622	5.71282E-001	-2.66113E-005	0.00000E+000	5.70003E-001	0.00000E+000	8	...........	1367.91
	811	1.624	5.61274E-001	-2.70885E-005	0.00000E+000	5.60006E-001	0.00000E+000	8	...........	1367.91
	812	1.626	5.51279E-001	-2.75970E-005	0.00000E+000	5.50008E-001	0.00000E+000	8	...........	1367.91
	813	1.628	5.41281E-001	-2.81321E-005	0.00000E+000	5.40011E-001	0.00000E+000	8	...........	1367.91
	814	1.63	5.31274E-001	-2.87208E-005	0.00000E+000	5.30013E-001	0.00000E+000	8	...........	1367.91
	815	1.632	5.21282E-001	-2.93539E-005	0.00000E+000	5.20016E-001	0.00000E+000	8	...........	1367.91
	816	1.634	5.11265E-001	-3.00430E-005	0.00000E+000	5.10018E-001	0.00000E+000	8	...........	1367.91
	817	1.636	5.01292E-001	-3.07406E-005	0.00000E+000	5.00021E-001	0.00000E+000	8	...........	1367.91
	818	1.638	4.91312E-001	-3.15334E-005	0.00000E+000	4.90024E-001	0.00000E+000	8	...........	1367.91
	819	1.64	4.81251E-001	-3.24678E-005	0.00000E+000	4.79976E-001	0.00000E+000	8	...........	1367.91
	820	1.642	4.71230E-001	-3.32258E-005	0.00000E+000	4.69979E-001	0.00000E+000	8	...........	1367.91
	821	1.644	4.61238E-001	-3.40725E-005	0.00000E+000	4.59981E-001	0.00000E+000	8	...........	1367.91
	822	1.646	4.51233E-001	-3.49351E-005	0.00000E+000	4.49984E-001	0.00000E+000	8	...........	1367.91
	823	1.648	4.41235E-001	-3.58296E-005	0.00000E+000	4.39986E-001	0.00000E+000	8	...........	1367.91
	824	1.65	4.31238E-001	-3.67024E-005	0.00000E+000	4.29989E-001	0.00000E+000	8	...........	1367.91
	825	1.652	4.21237E-001	-3.75772E-005	0.00000E+000	4.19991E-001	0.00000E+000	8	...........	1367.91
	826	1.654	4.11242E-001	-3.84236E-005	0.00000E+000	4.09994E-001	0.00000E+000	8	...........	1367.91
	827	1.656	4.01254E-001	-3.92051E-005	0.00000E+000	3.99997E-001	0.00000E+000	8	...........	1367.91
	828	1.658	3.91241E-001	-3.99672E-005	0.00000E+000	3.89999E-001	0.00000E+000	8	...........	1367.91
	829	1.66	3.81244E-001	-4.06018E-005	0.00000E+000	3.80002E-001	0.00000E+000	8	...........	1367.91
	830	1.662	3.71234E-001	-4.10102E-005	0.00000E+000	3.70004E-001	0.00000E+000	8	...........	1367.91
	831	1.664	3.61240E-001	-4.11447E-005	0.00000E+000	3.60007E-001	0.00000E+000	8	...........	1367.91
	832	1.666	3.51248E-001	-4.11153E-005	0.00000E+000	3.50009E-001	0.00000E+000	8	...........	1367.91
	833	1.668	3.41247E-001	-4.10768E-005	0.00000E+000	3.40012E-001	0.00000E+000	8	...........	1367.91
	834	1.67	3.31242E-001	-4.10954E-005	0.00000E+000	3.30014E-001	0.00000E+000	8	...........	1367.91
	835	1.672	3.21261E-001	-4.11094E-005	0.00000E+000	3.20017E-001	0.00000E+000	8	...........	1367.91
	836	1.674	3.11257E-001	-4.11046E-005	0.00000E+000	3.10020E-001	0.00000E+000	8	...........	1367.91
	837	1.676	3.01260E-001	-4.10368E-005	0.00000E+000	3.00022E-001	0.00000E+000	8	...........	1367.91
	838	1.678	2.91267E-001	-4.09668E-005	0.00000E+000	2.90025E-001	0.00000E+000	8	...........	1367.91
	839	1.68	2.81224E-001	-4.09584E-005	0.00000E+000	2.79977E-001	0.00000E+000	8	...........	1367.91
	840	1.682	2.71220E-001	-4.05923E-005	0.00000E+000	2.69980E-001	0.00000E+000	8	...........	1367.91