File: Test_Data_Files/20250509_ZM_IF0011_IIA42_E09_PBSair_PEDOT_CV5000.DTA
EXPLAIN
TAG	CV
TITLE	LABEL	CV5000	Test Identifier
DATE	LABEL	5/9/2025	Date
TIME	LABEL	15:48:28	Time
NOTES	NOTES	1	Notes...

PSTAT	PSTAT	REF600P-43058	Potentiostat
VINIT	POTEN	0.00000E+000	T	Initial E (V)
VLIMIT1	POTEN	-9.00000E-001	F	Scan Limit 1 (V)
VLIMIT2	POTEN	6.00000E-001	F	Scan Limit 2 (V)
VFINAL	POTEN	0.00000E+000	T	Final E (V)
SCANRATE	QUANT	4.99999E+003	Scan Rate (mV/s)
STEPSIZE	QUANT	1.00000E+001	Step Size (mV)
CYCLES	IQUANT	3	Cycles (#)
IMODE	SELECTOR	1	I/E Range Mode
IRANGE	QUANT	1.00000E-002	Max Current (mA)
AREA	QUANT	1.00000E+000	Sample Area (cm^2)
EQDELAY	QUANT	5.00000E+000	Equil. Time (s)
IRCOMP	SELECTOR	0	IRComp
PFCOR	QUANT	5.00000E+001	PF Corr. (ohm)
SAMPLINGMODE	SELECTOR	2	Sampling Mode
EOC	QUANT	0.1477523	Open Circuit (V)
ELECTRODETYPE	SELECTOR	0	Electrode Type
STRIPPING	TOGGLE	F	Used for Stripping
SEQUENCER	TOGGLE	TRUE	Run as Sequence
PSTATMODEL	IQUANT	7	Pstat Model
PSTATSECTION	LABEL	REF600P-43058	Pstat Section
PSTATSERIALNO	LABEL	43058	Pstat Serial Number
CTRLMODE	IQUANT	1	Control Mode
ELECTROMETER	IQUANT	0	RE=0 or CS=1
IESTAB	IQUANT	2	I/E Stability
CASPEED	IQUANT	4	Control Amp Speed
CONVENTION	IQUANT	1	Current Convention
ICHRANGE	IQUANT	2	Ich Range
ICHRANGEMODE	TOGGLE	F	Ich Auto Range
ICHOFFSETENABLE	TOGGLE	F	Ich Offset Enable
ICHOFFSET	QUANT	0	Ich Offset (V)
ICHFILTER	IQUANT	2	Ich Filter
VCHRANGE	IQUANT	2	Vch Range
VCHRANGEMODE	TOGGLE	F	Vch Auto Range
VCHOFFSETENABLE	TOGGLE	F	Vch Offset Enable
VCHOFFSET	QUANT	0	Vch Offset (V)
VCHFILTER	IQUANT	2	Vch Filter
ACHRANGE	IQUANT	2	Ach Range
ACHOFFSETENABLE	TOGGLE	F	Ach Offset Enable
ACHOFFSET	QUANT	0	Ach Offset (V)
ACHFILTER	IQUANT	1	Ach Filter
IERANGELOWERLIMIT	IQUANT	1	I/E Range Lower Limit
IERANGEMODE	TOGGLE	F	I/E AutoRange
IERANGE	IQUANT	7	I/E Range
POSFEEDENABLE	TOGGLE	F	Positive Feedback IR Comp
POSFEEDRESISTANCE	QUANT	0	Positive Feedback Resistance (ohm)
ACHSELECT	IQUANT	4	Ach Select
SENSECABLEID	IQUANT	7	Sense Cable ID
PWRCABLEID	IQUANT	7	Power Cable ID
DCCALDATE	LABEL	5/8/2025	DC Calibration Date
ACCALDATE	LABEL	5/8/2025	AC Calibration Date
THERMOSELECT	IQUANT	1	Thermo Select
FRAMEWORKVERSION	LABEL	7.10.4	Framework Version
INSTRUMENTVERSION	LABEL	5.01	Instrument Version
COMMVERSION	LABEL	5.10	Communications Version
CPUPLDVERSION	LABEL	6.00	CPU PLD Version
CTRLPLDVERSION	LABEL	3.21	CTRL PLD Version
PSTATPLDVERSION	LABEL	0.00	PSTAT PLD Version
CURVE1	TABLE
	Pt	T	Vf	Im	Vu	Sig	Ach	IERange	Over	Temp
	#	s	V vs. Ref.	A	V	V	V	#	bits	deg C
	0	0.002	1.47907E-001	9.59654E-009	0.00000E+000	1.47750E-001	1.35057E-003	7	...........	-327.66
	1	0.004	1.38614E-001	-7.04587E-007	0.00000E+000	1.37750E-001	1.42126E-003	7	...........	-327.66
	2	0.006	1.28571E-001	-1.08217E-006	0.00000E+000	1.27750E-001	1.39712E-003	7	...........	-327.66
	3	0.008	1.18606E-001	-1.35371E-006	0.00000E+000	1.17750E-001	1.34884E-003	7	...........	-327.66
	4	0.01	1.08591E-001	-1.57683E-006	0.00000E+000	1.07750E-001	1.40919E-003	7	...........	-327.66
	5	0.012	9.85644E-002	-1.76854E-006	0.00000E+000	9.77500E-002	1.40574E-003	7	...........	-327.66
	6	0.014	8.85945E-002	-1.93901E-006	0.00000E+000	8.77500E-002	1.43678E-003	7	...........	-327.66
	7	0.016	7.85549E-002	-2.09431E-006	0.00000E+000	7.77500E-002	1.42126E-003	7	...........	-327.66
	8	0.018	6.85971E-002	-2.23693E-006	0.00000E+000	6.77500E-002	1.44540E-003	7	...........	-327.66
	9	0.02	5.85592E-002	-2.36738E-006	0.00000E+000	5.77500E-002	1.41264E-003	7	...........	-327.66
	10	0.022	4.85885E-002	-2.48878E-006	0.00000E+000	4.77500E-002	1.41953E-003	7	...........	-327.66
	11	0.024	3.85911E-002	-2.60364E-006	0.00000E+000	3.77500E-002	1.47815E-003	7	...........	-327.66
	12	0.026	2.86109E-002	-2.70955E-006	0.00000E+000	2.77500E-002	1.45057E-003	7	...........	-327.66
	13	0.028	1.85842E-002	-2.81015E-006	0.00000E+000	1.77500E-002	1.47815E-003	7	...........	-327.66
	14	0.03	8.58938E-003	-2.90404E-006	0.00000E+000	7.74999E-003	1.43160E-003	7	...........	-327.66
	15	0.032	-1.44166E-003	-2.99335E-006	0.00000E+000	-2.25002E-003	1.48678E-003	7	...........	-327.66
	16	0.034	-1.13744E-002	-3.07772E-006	0.00000E+000	-1.22500E-002	1.46264E-003	7	...........	-327.66
	17	0.036	-2.14554E-002	-3.15739E-006	0.00000E+000	-2.22500E-002	1.40057E-003	7	...........	-327.66
	18	0.038	-3.14486E-002	-3.23474E-006	0.00000E+000	-3.22500E-002	1.42298E-003	7	...........	-327.66
	19	0.04	-4.13873E-002	-3.30741E-006	0.00000E+000	-4.22500E-002	1.45574E-003	7	...........	-327.66
	20	0.042	-5.13891E-002	-3.37757E-006	0.00000E+000	-5.22500E-002	1.43160E-003	7	...........	-327.66
	21	0.044	-6.14123E-002	-3.44432E-006	0.00000E+000	-6.22500E-002	1.45057E-003	7	...........	-327.66
	22	0.046	-7.14167E-002	-3.50809E-006	0.00000E+000	-7.22500E-002	1.45747E-003	7	...........	-327.66
	23	0.048	-8.14417E-002	-3.57003E-006	0.00000E+000	-8.22500E-002	1.38850E-003	7	...........	-327.66
	24	0.05	-9.13899E-002	-3.62949E-006	0.00000E+000	-9.22500E-002	1.41436E-003	7	...........	-327.66
	25	0.052	-1.01477E-001	-3.68811E-006	0.00000E+000	-1.02250E-001	1.44884E-003	7	...........	-327.66
	26	0.054	-1.11422E-001	-3.74469E-006	0.00000E+000	-1.12250E-001	1.49712E-003	7	...........	-327.66
	27	0.056	-1.21464E-001	-3.80010E-006	0.00000E+000	-1.22250E-001	1.40402E-003	7	...........	-327.66
	28	0.058	-1.31386E-001	-3.85264E-006	0.00000E+000	-1.32250E-001	1.39884E-003	7	...........	-327.66
	29	0.06	-1.41411E-001	-3.90521E-006	0.00000E+000	-1.42250E-001	1.45919E-003	7	...........	-327.66
	30	0.062	-1.51445E-001	-3.95560E-006	0.00000E+000	-1.52250E-001	1.45919E-003	7	...........	-327.66
	31	0.064	-1.61457E-001	-4.00657E-006	0.00000E+000	-1.62250E-001	1.41781E-003	7	...........	-327.66
	32	0.066	-1.71375E-001	-4.05460E-006	0.00000E+000	-1.72250E-001	1.43505E-003	7	...........	-327.66
	33	0.068	-1.81460E-001	-4.10322E-006	0.00000E+000	-1.82250E-001	1.37988E-003	7	...........	-327.66
	34	0.07	-1.91407E-001	-4.14966E-006	0.00000E+000	-1.92250E-001	1.44367E-003	7	...........	-327.66
	35	0.072	-2.01475E-001	-4.19761E-006	0.00000E+000	-2.02250E-001	1.44712E-003	7	...........	-327.66
	36	0.074	-2.11350E-001	-4.24336E-006	0.00000E+000	-2.12250E-001	1.48850E-003	7	...........	-327.66
	37	0.076	-2.21388E-001	-4.28875E-006	0.00000E+000	-2.22250E-001	1.47471E-003	7	...........	-327.66
	38	0.078	-2.31387E-001	-4.33272E-006	0.00000E+000	-2.32250E-001	1.45402E-003	7	...........	-327.66
	39	0.08	-2.41347E-001	-4.37633E-006	0.00000E+000	-2.42250E-001	1.43505E-003	7	...........	-327.66
	40	0.082	-2.51366E-001	-4.41904E-006	0.00000E+000	-2.52250E-001	1.46436E-003	7	...........	-327.66
	41	0.084	-2.61374E-001	-4.46177E-006	0.00000E+000	-2.62250E-001	1.44712E-003	7	...........	-327.66
	42	0.086	-2.71342E-001	-4.50236E-006	0.00000E+000	-2.72250E-001	1.49195E-003	7	...........	-327.66
	43	0.088	-2.81392E-001	-4.54232E-006	0.00000E+000	-2.82250E-001	1.50402E-003	7	...........	-327.66
	44	0.09	-2.91299E-001	-4.58165E-006	0.00000E+000	-2.92250E-001	1.45229E-003	7	...........	-327.66
	45	0.092	-3.01407E-001	-4.62074E-006	0.00000E+000	-3.02250E-001	1.45747E-003	7	...........	-327.66
	46	0.094	-3.11394E-001	-4.65752E-006	0.00000E+000	-3.12250E-001	1.46091E-003	7	...........	-327.66
	47	0.096	-3.21352E-001	-4.69373E-006	0.00000E+000	-3.22250E-001	1.45402E-003	7	...........	-327.66
	48	0.098	-3.31369E-001	-4.72667E-006	0.00000E+000	-3.32250E-001	1.46264E-003	7	...........	-327.66
	49	0.1	-3.41390E-001	-4.75924E-006	0.00000E+000	-3.42250E-001	1.46091E-003	7	...........	-327.66
	50	0.102	-3.51401E-001	-4.79218E-006	0.00000E+000	-3.52250E-001	1.43850E-003	7	...........	-327.66
	51	0.104	-3.61408E-001	-4.82175E-006	0.00000E+000	-3.62250E-001	1.40919E-003	7	...........	-327.66
	52	0.106	-3.71375E-001	-4.85043E-006	0.00000E+000	-3.72250E-001	1.39367E-003	7	...........	-327.66
	53	0.108	-3.81414E-001	-4.87862E-006	0.00000E+000	-3.82250E-001	1.40402E-003	7	...........	-327.66
	54	0.11	-3.91384E-001	-4.90366E-006	0.00000E+000	-3.92250E-001	1.39712E-003	7	...........	-327.66
	55	0.112	-4.01381E-001	-4.92730E-006	0.00000E+000	-4.02250E-001	1.48160E-003	7	...........	-327.66
	56	0.114	-4.11333E-001	-4.94894E-006	0.00000E+000	-4.12250E-001	1.41436E-003	7	...........	-327.66
	57	0.116	-4.21376E-001	-4.96996E-006	0.00000E+000	-4.22250E-001	1.39884E-003	7	...........	-327.66
	58	0.118	-4.31390E-001	-4.98855E-006	0.00000E+000	-4.32250E-001	1.39367E-003	7	...........	-327.66
	59	0.12	-4.41382E-001	-5.00626E-006	0.00000E+000	-4.42250E-001	1.44884E-003	7	...........	-327.66
	60	0.122	-4.51312E-001	-5.02119E-006	0.00000E+000	-4.52250E-001	1.44367E-003	7	...........	-327.66
	61	0.124	-4.61369E-001	-5.03544E-006	0.00000E+000	-4.62250E-001	1.38160E-003	7	...........	-327.66
	62	0.126	-4.71259E-001	-5.04775E-006	0.00000E+000	-4.72250E-001	1.46436E-003	7	...........	-327.66
	63	0.128	-4.81358E-001	-5.06054E-006	0.00000E+000	-4.82250E-001	1.40574E-003	7	...........	-327.66
	64	0.13	-4.91340E-001	-5.06865E-006	0.00000E+000	-4.92250E-001	1.44540E-003	7	...........	-327.66
	65	0.132	-5.01348E-001	-5.07765E-006	0.00000E+000	-5.02250E-001	1.44540E-003	7	...........	-327.66
	66	0.134	-5.11392E-001	-5.08458E-006	0.00000E+000	-5.12250E-001	1.37298E-003	7	...........	-327.66
	67	0.136	-5.21391E-001	-5.09096E-006	0.00000E+000	-5.22250E-001	1.39884E-003	7	...........	-327.66
	68	0.138	-5.31343E-001	-5.09498E-006	0.00000E+000	-5.32250E-001	1.45229E-003	7	...........	-327.66
	69	0.14	-5.41393E-001	-5.09694E-006	0.00000E+000	-5.42250E-001	1.41436E-003	7	...........	-327.66
	70	0.142	-5.51326E-001	-5.09769E-006	0.00000E+000	-5.52250E-001	1.43160E-003	7	...........	-327.66
	71	0.144	-5.61385E-001	-5.09505E-006	0.00000E+000	-5.62250E-001	1.35057E-003	7	...........	-327.66
	72	0.146	-5.71317E-001	-5.09058E-006	0.00000E+000	-5.72250E-001	1.40919E-003	7	...........	-327.66
	73	0.148	-5.81383E-001	-5.08020E-006	0.00000E+000	-5.82250E-001	1.43850E-003	7	...........	-327.66
	74	0.15	-5.91366E-001	-5.06622E-006	0.00000E+000	-5.92250E-001	1.39712E-003	7	...........	-327.66
	75	0.152	-6.01334E-001	-5.04673E-006	0.00000E+000	-6.02250E-001	1.37988E-003	7	...........	-327.66
	76	0.154	-6.11336E-001	-5.01957E-006	0.00000E+000	-6.12250E-001	1.40057E-003	7	...........	-327.66
	77	0.156	-6.21380E-001	-4.98376E-006	0.00000E+000	-6.22250E-001	1.39540E-003	7	...........	-327.66
	78	0.158	-6.31306E-001	-4.93977E-006	0.00000E+000	-6.32250E-001	1.37471E-003	7	...........	-327.66
	79	0.16	-6.41337E-001	-4.88266E-006	0.00000E+000	-6.42250E-001	1.42471E-003	7	...........	-327.66
	80	0.162	-6.51266E-001	-4.81197E-006	0.00000E+000	-6.52250E-001	1.42298E-003	7	...........	-327.66
	81	0.164	-6.61334E-001	-4.72986E-006	0.00000E+000	-6.62250E-001	1.41091E-003	7	...........	-327.66
	82	0.166	-6.71305E-001	-4.62959E-006	0.00000E+000	-6.72250E-001	1.38678E-003	7	...........	-327.66
	83	0.168	-6.81311E-001	-4.51043E-006	0.00000E+000	-6.82250E-001	1.39195E-003	7	...........	-327.66
	84	0.17	-6.91275E-001	-4.37502E-006	0.00000E+000	-6.92250E-001	1.40057E-003	7	...........	-327.66
	85	0.172	-7.01317E-001	-4.22141E-006	0.00000E+000	-7.02250E-001	1.42988E-003	7	...........	-327.66
	86	0.174	-7.11355E-001	-4.05297E-006	0.00000E+000	-7.12250E-001	1.37815E-003	7	...........	-327.66
	87	0.176	-7.21350E-001	-3.86729E-006	0.00000E+000	-7.22250E-001	1.42298E-003	7	...........	-327.66
	88	0.178	-7.31301E-001	-3.66951E-006	0.00000E+000	-7.32250E-001	1.37643E-003	7	...........	-327.66
	89	0.18	-7.41386E-001	-3.46289E-006	0.00000E+000	-7.42250E-001	1.41953E-003	7	...........	-327.66
	90	0.182	-7.51345E-001	-3.24814E-006	0.00000E+000	-7.52250E-001	1.39540E-003	7	...........	-327.66
	91	0.184	-7.61353E-001	-3.02789E-006	0.00000E+000	-7.62250E-001	1.40229E-003	7	...........	-327.66
	92	0.186	-7.71324E-001	-2.80830E-006	0.00000E+000	-7.72250E-001	1.49712E-003	7	...........	-327.66
	93	0.188	-7.81319E-001	-2.59543E-006	0.00000E+000	-7.82250E-001	1.50402E-003	7	...........	-327.66
	94	0.19	-7.91356E-001	-2.39301E-006	0.00000E+000	-7.92250E-001	1.37298E-003	7	...........	-327.66
	95	0.192	-8.01352E-001	-2.20310E-006	0.00000E+000	-8.02250E-001	1.42643E-003	7	...........	-327.66
	96	0.194	-8.11306E-001	-2.02696E-006	0.00000E+000	-8.12250E-001	1.42126E-003	7	...........	-327.66
	97	0.196	-8.21381E-001	-1.86545E-006	0.00000E+000	-8.22250E-001	1.42471E-003	7	...........	-327.66
	98	0.198	-8.31349E-001	-1.72093E-006	0.00000E+000	-8.32250E-001	1.39712E-003	7	...........	-327.66
	99	0.2	-8.41357E-001	-1.59478E-006	0.00000E+000	-8.42250E-001	1.41781E-003	7	...........	-327.66
	100	0.202	-8.51330E-001	-1.48452E-006	0.00000E+000	-8.52250E-001	1.41264E-003	7	...........	-327.66
	101	0.204	-8.61341E-001	-1.38709E-006	0.00000E+000	-8.62250E-001	1.38678E-003	7	...........	-327.66
	102	0.206	-8.71394E-001	-1.30327E-006	0.00000E+000	-8.72250E-001	1.39540E-003	7	...........	-327.66
	103	0.208	-8.81386E-001	-1.22854E-006	0.00000E+000	-8.82250E-001	1.42815E-003	7	...........	-327.66
	104	0.21	-8.91342E-001	-1.16344E-006	0.00000E+000	-8.92250E-001	1.46264E-003	7	...........	-327.66
	105	0.212	-9.01364E-001	-1.10600E-006	0.00000E+000	-9.02250E-001	1.45574E-003	7	...........	-327.66
	106	0.214	-8.92913E-001	-9.73555E-007	0.00000E+000	-8.92250E-001	1.43160E-003	7	...........	-327.66
	107	0.216	-8.82899E-001	-8.77955E-007	0.00000E+000	-8.82250E-001	1.47815E-003	7	...........	-327.66
	108	0.218	-8.72885E-001	-8.08791E-007	0.00000E+000	-8.72250E-001	1.44367E-003	7	...........	-327.66
	109	0.22	-8.62963E-001	-7.46317E-007	0.00000E+000	-8.62250E-001	1.40057E-003	7	...........	-327.66
	110	0.222	-8.52904E-001	-6.92844E-007	0.00000E+000	-8.52250E-001	1.40402E-003	7	...........	-327.66
	111	0.224	-8.42960E-001	-6.45010E-007	0.00000E+000	-8.42250E-001	1.38160E-003	7	...........	-327.66
	112	0.226	-8.32862E-001	-6.00056E-007	0.00000E+000	-8.32250E-001	1.45747E-003	7	...........	-327.66
	113	0.228	-8.22919E-001	-5.57222E-007	0.00000E+000	-8.22250E-001	1.41436E-003	7	...........	-327.66
	114	0.23	-8.12899E-001	-5.15682E-007	0.00000E+000	-8.12250E-001	1.41264E-003	7	...........	-327.66
	115	0.232	-8.02938E-001	-4.72866E-007	0.00000E+000	-8.02250E-001	1.46953E-003	7	...........	-327.66
	116	0.234	-7.92897E-001	-4.31153E-007	0.00000E+000	-7.92250E-001	1.43333E-003	7	...........	-327.66
	117	0.236	-7.82877E-001	-3.86492E-007	0.00000E+000	-7.82250E-001	1.41953E-003	7	...........	-327.66
	118	0.238	-7.72842E-001	-3.40313E-007	0.00000E+000	-7.72250E-001	1.43850E-003	7	...........	-327.66
	119	0.24	-7.62915E-001	-2.90979E-007	0.00000E+000	-7.62250E-001	1.47815E-003	7	...........	-327.66
	120	0.242	-7.52882E-001	-2.35971E-007	0.00000E+000	-7.52250E-001	1.44367E-003	7	...........	-327.66
	121	0.244	-7.42943E-001	-1.76998E-007	0.00000E+000	-7.42250E-001	1.48160E-003	7	...........	-327.66
	122	0.246	-7.32890E-001	-1.11385E-007	0.00000E+000	-7.32250E-001	1.40057E-003	7	...........	-327.66
	123	0.248	-7.22977E-001	-3.88066E-008	0.00000E+000	-7.22250E-001	1.39195E-003	7	...........	-327.66
	124	0.25	-7.12960E-001	4.13595E-008	0.00000E+000	-7.12250E-001	1.38333E-003	7	...........	-327.66
	125	0.252	-7.02942E-001	1.32027E-007	0.00000E+000	-7.02250E-001	1.41609E-003	7	...........	-327.66
	126	0.254	-6.92894E-001	2.31006E-007	0.00000E+000	-6.92250E-001	1.36091E-003	7	...........	-327.66
	127	0.256	-6.82967E-001	3.42642E-007	0.00000E+000	-6.82250E-001	1.38333E-003	7	...........	-327.66
	128	0.258	-6.72911E-001	4.67935E-007	0.00000E+000	-6.72250E-001	1.45402E-003	7	...........	-327.66
	129	0.26	-6.62967E-001	6.05419E-007	0.00000E+000	-6.62250E-001	1.37643E-003	7	...........	-327.66
	130	0.262	-6.52947E-001	7.61096E-007	0.00000E+000	-6.52250E-001	1.39540E-003	7	...........	-327.66
	131	0.264	-6.42959E-001	9.32084E-007	0.00000E+000	-6.42250E-001	1.38850E-003	7	...........	-327.66
	132	0.266	-6.32970E-001	1.12201E-006	0.00000E+000	-6.32250E-001	1.35229E-003	7	...........	-327.66
	133	0.268	-6.22940E-001	1.32900E-006	0.00000E+000	-6.22250E-001	1.46091E-003	7	...........	-327.66
	134	0.27	-6.12967E-001	1.55613E-006	0.00000E+000	-6.12250E-001	1.44884E-003	7	...........	-327.66
	135	0.272	-6.02989E-001	1.80355E-006	0.00000E+000	-6.02250E-001	1.45574E-003	7	...........	-327.66
	136	0.274	-5.93018E-001	2.06941E-006	0.00000E+000	-5.92250E-001	1.41609E-003	7	...........	-327.66
	137	0.276	-5.83001E-001	2.35635E-006	0.00000E+000	-5.82250E-001	1.43678E-003	7	...........	-327.66
	138	0.278	-5.72917E-001	2.66180E-006	0.00000E+000	-5.72250E-001	1.41781E-003	7	...........	-327.66
	139	0.28	-5.63027E-001	2.98300E-006	0.00000E+000	-5.62250E-001	1.42298E-003	7	...........	-327.66
	140	0.282	-5.53009E-001	3.31515E-006	0.00000E+000	-5.52250E-001	1.44195E-003	7	...........	-327.66
	141	0.284	-5.43023E-001	3.65137E-006	0.00000E+000	-5.42250E-001	1.41609E-003	7	...........	-327.66
	142	0.286	-5.33013E-001	3.98919E-006	0.00000E+000	-5.32250E-001	1.41264E-003	7	...........	-327.66
	143	0.288	-5.23056E-001	4.31151E-006	0.00000E+000	-5.22250E-001	1.41781E-003	7	...........	-327.66
	144	0.29	-5.13032E-001	4.60822E-006	0.00000E+000	-5.12250E-001	1.44712E-003	7	...........	-327.66
	145	0.292	-5.03001E-001	4.86167E-006	0.00000E+000	-5.02250E-001	1.41781E-003	7	...........	-327.66
	146	0.294	-4.92939E-001	5.06115E-006	0.00000E+000	-4.92250E-001	1.48160E-003	7	...........	-327.66
	147	0.296	-4.83038E-001	5.20270E-006	0.00000E+000	-4.82250E-001	1.38850E-003	7	...........	-327.66
	148	0.298	-4.72948E-001	5.28597E-006	0.00000E+000	-4.72250E-001	1.42815E-003	7	...........	-327.66
	149	0.3	-4.62977E-001	5.31165E-006	0.00000E+000	-4.62250E-001	1.40229E-003	7	...........	-327.66
	150	0.302	-4.52962E-001	5.29076E-006	0.00000E+000	-4.52250E-001	1.38678E-003	7	...........	-327.66
	151	0.304	-4.43049E-001	5.23912E-006	0.00000E+000	-4.42250E-001	1.45747E-003	7	...........	-327.66
	152	0.306	-4.33030E-001	5.16830E-006	0.00000E+000	-4.32250E-001	1.42298E-003	7	...........	-327.66
	153	0.308	-4.23013E-001	5.08243E-006	0.00000E+000	-4.22250E-001	1.47126E-003	7	...........	-327.66
	154	0.31	-4.12974E-001	4.99422E-006	0.00000E+000	-4.12250E-001	1.45919E-003	7	...........	-327.66
	155	0.312	-4.03053E-001	4.90866E-006	0.00000E+000	-4.02250E-001	1.41953E-003	7	...........	-327.66
	156	0.314	-3.93009E-001	4.82648E-006	0.00000E+000	-3.92250E-001	1.42471E-003	7	...........	-327.66
	157	0.316	-3.83059E-001	4.75350E-006	0.00000E+000	-3.82250E-001	1.50057E-003	7	...........	-327.66
	158	0.318	-3.72980E-001	4.69122E-006	0.00000E+000	-3.72250E-001	1.39367E-003	7	...........	-327.66
	159	0.32	-3.63039E-001	4.63428E-006	0.00000E+000	-3.62250E-001	1.42126E-003	7	...........	-327.66
	160	0.322	-3.53061E-001	4.58719E-006	0.00000E+000	-3.52250E-001	1.45919E-003	7	...........	-327.66
	161	0.324	-3.43055E-001	4.54766E-006	0.00000E+000	-3.42250E-001	1.46091E-003	7	...........	-327.66
	162	0.326	-3.33036E-001	4.51506E-006	0.00000E+000	-3.32250E-001	1.46953E-003	7	...........	-327.66
	163	0.328	-3.22993E-001	4.48738E-006	0.00000E+000	-3.22250E-001	1.44195E-003	7	...........	-327.66
	164	0.33	-3.13021E-001	4.46532E-006	0.00000E+000	-3.12250E-001	1.47126E-003	7	...........	-327.66
	165	0.332	-3.03048E-001	4.44841E-006	0.00000E+000	-3.02250E-001	1.43505E-003	7	...........	-327.66
	166	0.334	-2.92898E-001	4.43389E-006	0.00000E+000	-2.92250E-001	1.42988E-003	7	...........	-327.66
	167	0.336	-2.83020E-001	4.41982E-006	0.00000E+000	-2.82250E-001	1.43160E-003	7	...........	-327.66
	168	0.338	-2.73030E-001	4.40980E-006	0.00000E+000	-2.72250E-001	1.44884E-003	7	...........	-327.66
	169	0.34	-2.63052E-001	4.39969E-006	0.00000E+000	-2.62250E-001	1.40402E-003	7	...........	-327.66
	170	0.342	-2.53030E-001	4.39031E-006	0.00000E+000	-2.52250E-001	1.45402E-003	7	...........	-327.66
	171	0.344	-2.43011E-001	4.38119E-006	0.00000E+000	-2.42250E-001	1.40747E-003	7	...........	-327.66
	172	0.346	-2.33038E-001	4.37160E-006	0.00000E+000	-2.32250E-001	1.39884E-003	7	...........	-327.66
	173	0.348	-2.23025E-001	4.36297E-006	0.00000E+000	-2.22250E-001	1.40057E-003	7	...........	-327.66
	174	0.35	-2.12988E-001	4.35445E-006	0.00000E+000	-2.12250E-001	1.46609E-003	7	...........	-327.66
	175	0.352	-2.03104E-001	4.34698E-006	0.00000E+000	-2.02250E-001	1.44540E-003	7	...........	-327.66
	176	0.354	-1.93075E-001	4.34146E-006	0.00000E+000	-1.92250E-001	1.41781E-003	7	...........	-327.66
	177	0.356	-1.83084E-001	4.33450E-006	0.00000E+000	-1.82250E-001	1.40229E-003	7	...........	-327.66
	178	0.358	-1.73031E-001	4.32832E-006	0.00000E+000	-1.72250E-001	1.44022E-003	7	...........	-327.66
	179	0.36	-1.63080E-001	4.32180E-006	0.00000E+000	-1.62250E-001	1.43678E-003	7	...........	-327.66
	180	0.362	-1.53088E-001	4.31799E-006	0.00000E+000	-1.52250E-001	1.39367E-003	7	...........	-327.66
	181	0.364	-1.43068E-001	4.31320E-006	0.00000E+000	-1.42250E-001	1.43160E-003	7	...........	-327.66
	182	0.366	-1.33030E-001	4.30917E-006	0.00000E+000	-1.32250E-001	1.42815E-003	7	...........	-327.66
	183	0.368	-1.23092E-001	4.30372E-006	0.00000E+000	-1.22250E-001	1.44540E-003	7	...........	-327.66
	184	0.37	-1.13049E-001	4.30068E-006	0.00000E+000	-1.12250E-001	1.39884E-003	7	...........	-327.66
	185	0.372	-1.03097E-001	4.29718E-006	0.00000E+000	-1.02250E-001	1.41436E-003	7	...........	-327.66
	186	0.374	-9.30330E-002	4.29315E-006	0.00000E+000	-9.22500E-002	1.43850E-003	7	...........	-327.66
	187	0.376	-8.30468E-002	4.28911E-006	0.00000E+000	-8.22500E-002	1.41609E-003	7	...........	-327.66
	188	0.378	-7.30899E-002	4.28385E-006	0.00000E+000	-7.22500E-002	1.42126E-003	7	...........	-327.66
	189	0.38	-6.30305E-002	4.28013E-006	0.00000E+000	-6.22500E-002	1.48850E-003	7	...........	-327.66
	190	0.382	-5.30192E-002	4.27626E-006	0.00000E+000	-5.22500E-002	1.44712E-003	7	...........	-327.66
	191	0.384	-4.30529E-002	4.27085E-006	0.00000E+000	-4.22500E-002	1.46091E-003	7	...........	-327.66
	192	0.386	-3.30546E-002	4.26571E-006	0.00000E+000	-3.22500E-002	1.46264E-003	7	...........	-327.66
	193	0.388	-2.30848E-002	4.25945E-006	0.00000E+000	-2.22500E-002	1.44712E-003	7	...........	-327.66
	194	0.39	-1.29968E-002	4.25431E-006	0.00000E+000	-1.22500E-002	1.46953E-003	7	...........	-327.66
	195	0.392	-3.07614E-003	4.24660E-006	0.00000E+000	-2.25002E-003	1.44195E-003	7	...........	-327.66
	196	0.394	6.95662E-003	4.23990E-006	0.00000E+000	7.74999E-003	1.44195E-003	7	...........	-327.66
	197	0.396	1.69877E-002	4.23250E-006	0.00000E+000	1.77500E-002	1.38850E-003	7	...........	-327.66
	198	0.398	2.70023E-002	4.22465E-006	0.00000E+000	2.77500E-002	1.38505E-003	7	...........	-327.66
	199	0.4	3.70006E-002	4.21551E-006	0.00000E+000	3.77500E-002	1.43333E-003	7	...........	-327.66
	200	0.402	4.69868E-002	4.20755E-006	0.00000E+000	4.77500E-002	1.42126E-003	7	...........	-327.66
	201	0.404	5.69713E-002	4.19744E-006	0.00000E+000	5.77500E-002	1.47126E-003	7	...........	-327.66
	202	0.406	6.70066E-002	4.18777E-006	0.00000E+000	6.77500E-002	1.43678E-003	7	...........	-327.66
	203	0.408	7.69549E-002	4.17808E-006	0.00000E+000	7.77500E-002	1.44884E-003	7	...........	-327.66
	204	0.41	8.69669E-002	4.16763E-006	0.00000E+000	8.77500E-002	1.41264E-003	7	...........	-327.66
	205	0.412	9.69480E-002	4.15764E-006	0.00000E+000	9.77500E-002	1.35574E-003	7	...........	-327.66
	206	0.414	1.06973E-001	4.14688E-006	0.00000E+000	1.07750E-001	1.46091E-003	7	...........	-327.66
	207	0.416	1.16976E-001	4.13581E-006	0.00000E+000	1.17750E-001	1.45747E-003	7	...........	-327.66
	208	0.418	1.26966E-001	4.12476E-006	0.00000E+000	1.27750E-001	1.42643E-003	7	...........	-327.66
	209	0.42	1.36962E-001	4.11314E-006	0.00000E+000	1.37750E-001	1.40919E-003	7	...........	-327.66
	210	0.422	1.47029E-001	4.10145E-006	0.00000E+000	1.47750E-001	1.41091E-003	7	...........	-327.66
	211	0.424	1.56928E-001	4.08982E-006	0.00000E+000	1.57750E-001	1.40747E-003	7	...........	-327.66
	212	0.426	1.66982E-001	4.07922E-006	0.00000E+000	1.67750E-001	1.39884E-003	7	...........	-327.66
	213	0.428	1.76995E-001	4.06737E-006	0.00000E+000	1.77750E-001	1.41436E-003	7	...........	-327.66
	214	0.43	1.86991E-001	4.05735E-006	0.00000E+000	1.87750E-001	1.44712E-003	7	...........	-327.66
	215	0.432	1.96970E-001	4.04466E-006	0.00000E+000	1.97750E-001	1.40402E-003	7	...........	-327.66
	216	0.434	2.06925E-001	4.03568E-006	0.00000E+000	2.07750E-001	1.43505E-003	7	...........	-327.66
	217	0.436	2.16942E-001	4.02457E-006	0.00000E+000	2.17750E-001	1.38160E-003	7	...........	-327.66
	218	0.438	2.26952E-001	4.01326E-006	0.00000E+000	2.27750E-001	1.39195E-003	7	...........	-327.66
	219	0.44	2.36908E-001	4.00349E-006	0.00000E+000	2.37750E-001	1.41264E-003	7	...........	-327.66
	220	0.442	2.46953E-001	3.99340E-006	0.00000E+000	2.47750E-001	1.45747E-003	7	...........	-327.66
	221	0.444	2.56889E-001	3.98353E-006	0.00000E+000	2.57750E-001	1.48505E-003	7	...........	-327.66
	222	0.446	2.66960E-001	3.97512E-006	0.00000E+000	2.67750E-001	1.46781E-003	7	...........	-327.66
	223	0.448	2.76907E-001	3.96622E-006	0.00000E+000	2.77750E-001	1.44884E-003	7	...........	-327.66
	224	0.45	2.86897E-001	3.95862E-006	0.00000E+000	2.87750E-001	1.38160E-003	7	...........	-327.66
	225	0.452	2.96910E-001	3.95148E-006	0.00000E+000	2.97750E-001	1.37471E-003	7	...........	-327.66
	226	0.454	3.06931E-001	3.94367E-006	0.00000E+000	3.07750E-001	1.39712E-003	7	...........	-327.66
	227	0.456	3.16938E-001	3.93867E-006	0.00000E+000	3.17750E-001	1.50919E-003	7	...........	-327.66
	228	0.458	3.26952E-001	3.93370E-006	0.00000E+000	3.27750E-001	1.43678E-003	7	...........	-327.66
	229	0.46	3.36899E-001	3.92839E-006	0.00000E+000	3.37750E-001	1.40057E-003	7	...........	-327.66
	230	0.462	3.47018E-001	3.92587E-006	0.00000E+000	3.47750E-001	1.39022E-003	7	...........	-327.66
	231	0.464	3.56921E-001	3.92215E-006	0.00000E+000	3.57750E-001	1.42815E-003	7	...........	-327.66
	232	0.466	3.66932E-001	3.92203E-006	0.00000E+000	3.67750E-001	1.43505E-003	7	...........	-327.66
	233	0.468	3.76919E-001	3.92089E-006	0.00000E+000	3.77750E-001	1.37471E-003	7	...........	-327.66
	234	0.47	3.86946E-001	3.92078E-006	0.00000E+000	3.87750E-001	1.39712E-003	7	...........	-327.66
	235	0.472	3.96932E-001	3.92249E-006	0.00000E+000	3.97750E-001	1.45057E-003	7	...........	-327.66
	236	0.474	4.06910E-001	3.92422E-006	0.00000E+000	4.07750E-001	1.49367E-003	7	...........	-327.66
	237	0.476	4.16904E-001	3.92798E-006	0.00000E+000	4.17750E-001	1.43160E-003	7	...........	-327.66
	238	0.478	4.26960E-001	3.93282E-006	0.00000E+000	4.27750E-001	1.47815E-003	7	...........	-327.66
	239	0.48	4.36877E-001	3.93860E-006	0.00000E+000	4.37750E-001	1.45747E-003	7	...........	-327.66
	240	0.482	4.46928E-001	3.94537E-006	0.00000E+000	4.47750E-001	1.47298E-003	7	...........	-327.66
	241	0.484	4.56878E-001	3.95388E-006	0.00000E+000	4.57750E-001	1.41781E-003	7	...........	-327.66
	242	0.486	4.66913E-001	3.96279E-006	0.00000E+000	4.67750E-001	1.41264E-003	7	...........	-327.66
	243	0.488	4.76876E-001	3.97219E-006	0.00000E+000	4.77750E-001	1.39367E-003	7	...........	-327.66
	244	0.49	4.86871E-001	3.98374E-006	0.00000E+000	4.87750E-001	1.42126E-003	7	...........	-327.66
	245	0.492	4.96897E-001	3.99562E-006	0.00000E+000	4.97750E-001	1.39367E-003	7	...........	-327.66
	246	0.494	5.06951E-001	4.00928E-006	0.00000E+000	5.07750E-001	1.46781E-003	7	...........	-327.66
	247	0.496	5.16876E-001	4.02166E-006	0.00000E+000	5.17750E-001	1.36091E-003	7	...........	-327.66
	248	0.498	5.26939E-001	4.03890E-006	0.00000E+000	5.27750E-001	1.43333E-003	7	...........	-327.66
	249	0.5	5.36890E-001	4.05372E-006	0.00000E+000	5.37750E-001	1.40919E-003	7	...........	-327.66
	250	0.502	5.46914E-001	4.07089E-006	0.00000E+000	5.47750E-001	1.37298E-003	7	...........	-327.66
	251	0.504	5.56885E-001	4.08988E-006	0.00000E+000	5.57750E-001	1.41609E-003	7	...........	-327.66
	252	0.506	5.66876E-001	4.10898E-006	0.00000E+000	5.67750E-001	1.47643E-003	7	...........	-327.66
	253	0.508	5.76918E-001	4.13019E-006	0.00000E+000	5.77750E-001	1.35919E-003	7	...........	-327.66
	254	0.51	5.86915E-001	4.15233E-006	0.00000E+000	5.87750E-001	1.41091E-003	7	...........	-327.66
	255	0.512	5.96882E-001	4.17661E-006	0.00000E+000	5.97750E-001	1.44884E-003	7	...........	-327.66
CURVE2	TABLE
	Pt	T	Vf	Im	Vu	Sig	Ach	IERange	Over	Temp
	#	s	V vs. Ref.	A	V	V	V	#	bits	deg C
	256	0.514	5.90548E-001	2.94808E-006	0.00000E+000	5.90000E-001	1.47471E-003	7	...........	-327.66
	257	0.516	5.80769E-001	2.12359E-006	0.00000E+000	5.80000E-001	1.47815E-003	7	...........	-327.66
	258	0.518	5.70752E-001	1.55088E-006	0.00000E+000	5.70000E-001	1.38333E-003	7	...........	-327.66
	259	0.52	5.60751E-001	1.09088E-006	0.00000E+000	5.60000E-001	1.41609E-003	7	...........	-327.66
	260	0.522	5.50770E-001	6.99415E-007	0.00000E+000	5.50000E-001	1.45057E-003	7	...........	-327.66
	261	0.524	5.40770E-001	3.56920E-007	0.00000E+000	5.40000E-001	1.43850E-003	7	...........	-327.66
	262	0.526	5.30782E-001	5.24472E-008	0.00000E+000	5.30000E-001	1.45747E-003	7	...........	-327.66
	263	0.528	5.20753E-001	-2.21935E-007	0.00000E+000	5.20000E-001	1.40747E-003	7	...........	-327.66
	264	0.53	5.10762E-001	-4.69917E-007	0.00000E+000	5.10000E-001	1.36781E-003	7	...........	-327.66
	265	0.532	5.00800E-001	-6.95913E-007	0.00000E+000	5.00000E-001	1.41609E-003	7	...........	-327.66
	266	0.534	4.90761E-001	-9.03355E-007	0.00000E+000	4.90000E-001	1.50919E-003	7	...........	-327.66
	267	0.536	4.80761E-001	-1.09538E-006	0.00000E+000	4.80000E-001	1.43505E-003	7	...........	-327.66
	268	0.538	4.70771E-001	-1.27170E-006	0.00000E+000	4.70000E-001	1.42298E-003	7	...........	-327.66
	269	0.54	4.60781E-001	-1.43489E-006	0.00000E+000	4.60000E-001	1.41436E-003	7	...........	-327.66
	270	0.542	4.50788E-001	-1.58581E-006	0.00000E+000	4.50000E-001	1.36953E-003	7	...........	-327.66
	271	0.544	4.40743E-001	-1.72866E-006	0.00000E+000	4.40000E-001	1.37298E-003	7	...........	-327.66
	272	0.546	4.30780E-001	-1.85862E-006	0.00000E+000	4.30000E-001	1.38505E-003	7	...........	-327.66
	273	0.548	4.20825E-001	-1.98083E-006	0.00000E+000	4.20000E-001	1.35919E-003	7	...........	-327.66
	274	0.55	4.10763E-001	-2.09566E-006	0.00000E+000	4.10000E-001	1.41781E-003	7	...........	-327.66
	275	0.552	4.00789E-001	-2.20403E-006	0.00000E+000	4.00000E-001	1.40919E-003	7	...........	-327.66
	276	0.554	3.90785E-001	-2.30596E-006	0.00000E+000	3.90000E-001	1.41091E-003	7	...........	-327.66
	277	0.556	3.80824E-001	-2.39901E-006	0.00000E+000	3.80000E-001	1.41609E-003	7	...........	-327.66
	278	0.558	3.70815E-001	-2.48957E-006	0.00000E+000	3.70000E-001	1.42815E-003	7	...........	-327.66
	279	0.56	3.60789E-001	-2.57472E-006	0.00000E+000	3.60000E-001	1.38678E-003	7	...........	-327.66
	280	0.562	3.50819E-001	-2.65475E-006	0.00000E+000	3.50000E-001	1.40747E-003	7	...........	-327.66
	281	0.564	3.40815E-001	-2.72986E-006	0.00000E+000	3.40000E-001	1.40402E-003	7	...........	-327.66
	282	0.566	3.30795E-001	-2.80072E-006	0.00000E+000	3.30000E-001	1.44022E-003	7	...........	-327.66
	283	0.568	3.20806E-001	-2.86967E-006	0.00000E+000	3.20000E-001	1.41781E-003	7	...........	-327.66
	284	0.57	3.10789E-001	-2.93524E-006	0.00000E+000	3.10000E-001	1.44884E-003	7	...........	-327.66
	285	0.572	3.00812E-001	-2.99766E-006	0.00000E+000	3.00000E-001	1.46091E-003	7	...........	-327.66
	286	0.574	2.90787E-001	-3.05555E-006	0.00000E+000	2.90000E-001	1.43850E-003	7	...........	-327.66
	287	0.576	2.80773E-001	-3.11392E-006	0.00000E+000	2.80000E-001	1.41436E-003	7	...........	-327.66
	288	0.578	2.70848E-001	-3.16828E-006	0.00000E+000	2.70000E-001	1.46264E-003	7	...........	-327.66
	289	0.58	2.60781E-001	-3.22190E-006	0.00000E+000	2.60000E-001	1.34540E-003	7	...........	-327.66
	290	0.582	2.50838E-001	-3.27044E-006	0.00000E+000	2.50000E-001	1.42643E-003	7	...........	-327.66
	291	0.584	2.40811E-001	-3.31951E-006	0.00000E+000	2.40000E-001	1.39884E-003	7	...........	-327.66
	292	0.586	2.30782E-001	-3.36721E-006	0.00000E+000	2.30000E-001	1.38678E-003	7	...........	-327.66
	293	0.588	2.20821E-001	-3.41399E-006	0.00000E+000	2.20000E-001	1.39712E-003	7	...........	-327.66
	294	0.59	2.10789E-001	-3.45767E-006	0.00000E+000	2.10000E-001	1.43678E-003	7	...........	-327.66
	295	0.592	2.00811E-001	-3.50090E-006	0.00000E+000	2.00000E-001	1.45229E-003	7	...........	-327.66
	296	0.594	1.90851E-001	-3.54234E-006	0.00000E+000	1.90000E-001	1.40574E-003	7	...........	-327.66
	297	0.596	1.80826E-001	-3.58322E-006	0.00000E+000	1.80000E-001	1.47126E-003	7	...........	-327.66
	298	0.598	1.70838E-001	-3.62336E-006	0.00000E+000	1.70000E-001	1.35919E-003	7	...........	-327.66
	299	0.6	1.60808E-001	-3.66028E-006	0.00000E+000	1.60000E-001	1.37643E-003	7	...........	-327.66
	300	0.602	1.50826E-001	-3.69827E-006	0.00000E+000	1.50000E-001	1.42815E-003	7	...........	-327.66
	301	0.604	1.40889E-001	-3.73434E-006	0.00000E+000	1.40000E-001	1.43678E-003	7	...........	-327.66
	302	0.606	1.30836E-001	-3.76944E-006	0.00000E+000	1.30000E-001	1.46953E-003	7	...........	-327.66
	303	0.608	1.20836E-001	-3.80549E-006	0.00000E+000	1.20000E-001	1.41781E-003	7	...........	-327.66
	304	0.61	1.10826E-001	-3.83791E-006	0.00000E+000	1.10000E-001	1.44367E-003	7	...........	-327.66
	305	0.612	1.00813E-001	-3.87179E-006	0.00000E+000	1.00000E-001	1.42298E-003	7	...........	-327.66
	306	0.614	9.08816E-002	-3.90344E-006	0.00000E+000	9.00000E-002	1.46781E-003	7	...........	-327.66
	307	0.616	8.07980E-002	-3.93496E-006	0.00000E+000	8.00000E-002	1.45747E-003	7	...........	-327.66
	308	0.618	7.08170E-002	-3.96610E-006	0.00000E+000	7.00000E-002	1.38850E-003	7	...........	-327.66
	309	0.62	6.08437E-002	-3.99419E-006	0.00000E+000	6.00000E-002	1.41953E-003	7	...........	-327.66
	310	0.622	5.08532E-002	-4.02318E-006	0.00000E+000	5.00000E-002	1.36781E-003	7	...........	-327.66
	311	0.624	4.07877E-002	-4.05260E-006	0.00000E+000	4.00000E-002	1.45229E-003	7	...........	-327.66
	312	0.626	3.08118E-002	-4.08020E-006	0.00000E+000	3.00000E-002	1.46091E-003	7	...........	-327.66
	313	0.628	2.08368E-002	-4.10691E-006	0.00000E+000	2.00000E-002	1.39195E-003	7	...........	-327.66
	314	0.63	1.08480E-002	-4.13262E-006	0.00000E+000	9.99999E-003	1.39022E-003	7	...........	-327.66
	315	0.632	7.95411E-004	-4.15792E-006	0.00000E+000	-1.49012E-008	1.38850E-003	7	...........	-327.66
	316	0.634	-9.14683E-003	-4.18285E-006	0.00000E+000	-1.00000E-002	1.42988E-003	7	...........	-327.66
	317	0.636	-1.91736E-002	-4.20808E-006	0.00000E+000	-2.00000E-002	1.41091E-003	7	...........	-327.66
	318	0.638	-2.91830E-002	-4.23084E-006	0.00000E+000	-3.00000E-002	1.42643E-003	7	...........	-327.66
	319	0.64	-3.91520E-002	-4.25416E-006	0.00000E+000	-4.00000E-002	1.41091E-003	7	...........	-327.66
	320	0.642	-4.92037E-002	-4.27709E-006	0.00000E+000	-5.00000E-002	1.38678E-003	7	...........	-327.66
	321	0.644	-5.91753E-002	-4.30022E-006	0.00000E+000	-6.00000E-002	1.44712E-003	7	...........	-327.66
	322	0.646	-6.91546E-002	-4.32080E-006	0.00000E+000	-7.00000E-002	1.43333E-003	7	...........	-327.66
	323	0.648	-7.92011E-002	-4.34132E-006	0.00000E+000	-8.00000E-002	1.44195E-003	7	...........	-327.66
	324	0.65	-8.91425E-002	-4.36267E-006	0.00000E+000	-9.00000E-002	1.48333E-003	7	...........	-327.66
	325	0.652	-9.91684E-002	-4.38295E-006	0.00000E+000	-1.00000E-001	1.46609E-003	7	...........	-327.66
	326	0.654	-1.09155E-001	-4.40290E-006	0.00000E+000	-1.10000E-001	1.46953E-003	7	...........	-327.66
	327	0.656	-1.19185E-001	-4.42163E-006	0.00000E+000	-1.20000E-001	1.47815E-003	7	...........	-327.66
	328	0.658	-1.29201E-001	-4.43985E-006	0.00000E+000	-1.30000E-001	1.42471E-003	7	...........	-327.66
	329	0.66	-1.39150E-001	-4.45817E-006	0.00000E+000	-1.40000E-001	1.39367E-003	7	...........	-327.66
	330	0.662	-1.49209E-001	-4.47517E-006	0.00000E+000	-1.50000E-001	1.44884E-003	7	...........	-327.66
	331	0.664	-1.59199E-001	-4.49157E-006	0.00000E+000	-1.60000E-001	1.43160E-003	7	...........	-327.66
	332	0.666	-1.69170E-001	-4.50709E-006	0.00000E+000	-1.70000E-001	1.45402E-003	7	...........	-327.66
	333	0.668	-1.79180E-001	-4.52297E-006	0.00000E+000	-1.80000E-001	1.48333E-003	7	...........	-327.66
	334	0.67	-1.89088E-001	-4.53654E-006	0.00000E+000	-1.90000E-001	1.39884E-003	7	...........	-327.66
	335	0.672	-1.99214E-001	-4.55215E-006	0.00000E+000	-2.00000E-001	1.44367E-003	7	...........	-327.66
	336	0.674	-2.09185E-001	-4.56466E-006	0.00000E+000	-2.10000E-001	1.41436E-003	7	...........	-327.66
	337	0.676	-2.19083E-001	-4.57711E-006	0.00000E+000	-2.20000E-001	1.40574E-003	7	...........	-327.66
	338	0.678	-2.29153E-001	-4.58863E-006	0.00000E+000	-2.30000E-001	1.46091E-003	7	...........	-327.66
	339	0.68	-2.39162E-001	-4.59914E-006	0.00000E+000	-2.40000E-001	1.38160E-003	7	...........	-327.66
	340	0.682	-2.49124E-001	-4.60927E-006	0.00000E+000	-2.50000E-001	1.48160E-003	7	...........	-327.66
	341	0.684	-2.59145E-001	-4.61807E-006	0.00000E+000	-2.60000E-001	1.44367E-003	7	...........	-327.66
	342	0.686	-2.69108E-001	-4.62705E-006	0.00000E+000	-2.70000E-001	1.43505E-003	7	...........	-327.66
	343	0.688	-2.79174E-001	-4.63392E-006	0.00000E+000	-2.80000E-001	1.42126E-003	7	...........	-327.66
	344	0.69	-2.89139E-001	-4.64007E-006	0.00000E+000	-2.90000E-001	1.39022E-003	7	...........	-327.66
	345	0.692	-2.99110E-001	-4.64516E-006	0.00000E+000	-3.00000E-001	1.36781E-003	7	...........	-327.66
	346	0.694	-3.09136E-001	-4.64954E-006	0.00000E+000	-3.10000E-001	1.38850E-003	7	...........	-327.66
	347	0.696	-3.19168E-001	-4.65345E-006	0.00000E+000	-3.20000E-001	1.39367E-003	7	...........	-327.66
	348	0.698	-3.29180E-001	-4.65671E-006	0.00000E+000	-3.30000E-001	1.39712E-003	7	...........	-327.66
	349	0.7	-3.39153E-001	-4.65821E-006	0.00000E+000	-3.40000E-001	1.46609E-003	7	...........	-327.66
	350	0.702	-3.49123E-001	-4.65814E-006	0.00000E+000	-3.50000E-001	1.45402E-003	7	...........	-327.66
	351	0.704	-3.59186E-001	-4.66026E-006	0.00000E+000	-3.60000E-001	1.40574E-003	7	...........	-327.66
	352	0.706	-3.69073E-001	-4.65973E-006	0.00000E+000	-3.70000E-001	1.49022E-003	7	...........	-327.66
	353	0.708	-3.79168E-001	-4.66088E-006	0.00000E+000	-3.80000E-001	1.44195E-003	7	...........	-327.66
	354	0.71	-3.89148E-001	-4.65916E-006	0.00000E+000	-3.90000E-001	1.43678E-003	7	...........	-327.66
	355	0.712	-3.99134E-001	-4.65816E-006	0.00000E+000	-4.00000E-001	1.46781E-003	7	...........	-327.66
	356	0.714	-4.09140E-001	-4.65673E-006	0.00000E+000	-4.10000E-001	1.40747E-003	7	...........	-327.66
	357	0.716	-4.19111E-001	-4.65466E-006	0.00000E+000	-4.20000E-001	1.48160E-003	7	...........	-327.66
	358	0.718	-4.29124E-001	-4.65269E-006	0.00000E+000	-4.30000E-001	1.41953E-003	7	...........	-327.66
	359	0.72	-4.39156E-001	-4.64957E-006	0.00000E+000	-4.40000E-001	1.41091E-003	7	...........	-327.66
	360	0.722	-4.49109E-001	-4.64680E-006	0.00000E+000	-4.50000E-001	1.48505E-003	7	...........	-327.66
	361	0.724	-4.59147E-001	-4.64462E-006	0.00000E+000	-4.60000E-001	1.44884E-003	7	...........	-327.66
	362	0.726	-4.69061E-001	-4.64238E-006	0.00000E+000	-4.70000E-001	1.46609E-003	7	...........	-327.66
	363	0.728	-4.79113E-001	-4.63983E-006	0.00000E+000	-4.80000E-001	1.48333E-003	7	...........	-327.66
	364	0.73	-4.89114E-001	-4.63688E-006	0.00000E+000	-4.90000E-001	1.37815E-003	7	...........	-327.66
	365	0.732	-4.99086E-001	-4.63383E-006	0.00000E+000	-5.00000E-001	1.43850E-003	7	...........	-327.66
	366	0.734	-5.09144E-001	-4.63064E-006	0.00000E+000	-5.10000E-001	1.43333E-003	7	...........	-327.66
	367	0.736	-5.19155E-001	-4.62866E-006	0.00000E+000	-5.20000E-001	1.39367E-003	7	...........	-327.66
	368	0.738	-5.29134E-001	-4.62319E-006	0.00000E+000	-5.30000E-001	1.49022E-003	7	...........	-327.66
	369	0.74	-5.39142E-001	-4.61698E-006	0.00000E+000	-5.40000E-001	1.41781E-003	7	...........	-327.66
	370	0.742	-5.49072E-001	-4.60948E-006	0.00000E+000	-5.50000E-001	1.42471E-003	7	...........	-327.66
	371	0.744	-5.59161E-001	-4.59915E-006	0.00000E+000	-5.60000E-001	1.43505E-003	7	...........	-327.66
	372	0.746	-5.69112E-001	-4.58760E-006	0.00000E+000	-5.70000E-001	1.52126E-003	7	...........	-327.66
	373	0.748	-5.79082E-001	-4.56994E-006	0.00000E+000	-5.80000E-001	1.42643E-003	7	...........	-327.66
	374	0.75	-5.89110E-001	-4.54892E-006	0.00000E+000	-5.90000E-001	1.47298E-003	7	...........	-327.66
	375	0.752	-5.99102E-001	-4.52204E-006	0.00000E+000	-6.00000E-001	1.47643E-003	7	...........	-327.66
[...]
	700	1.402	-8.49167E-001	-1.41832E-006	0.00000E+000	-8.50000E-001	1.40747E-003	7	...........	-327.66
	701	1.404	-8.59076E-001	-1.33398E-006	0.00000E+000	-8.60000E-001	1.40057E-003	7	...........	-327.66
	702	1.406	-8.69148E-001	-1.25978E-006	0.00000E+000	-8.70000E-001	1.45919E-003	7	...........	-327.66
	703	1.408	-8.79157E-001	-1.19274E-006	0.00000E+000	-8.80000E-001	1.46091E-003	7	...........	-327.66
	704	1.41	-8.89097E-001	-1.13133E-006	0.00000E+000	-8.90000E-001	1.38333E-003	7	...........	-327.66
	705	1.412	-8.99136E-001	-1.07628E-006	0.00000E+000	-9.00000E-001	1.38850E-003	7	...........	-327.66
	706	1.414	-8.90691E-001	-9.51241E-007	0.00000E+000	-8.90000E-001	1.39195E-003	7	...........	-327.66
	707	1.416	-8.80651E-001	-8.60712E-007	0.00000E+000	-8.80000E-001	1.45229E-003	7	...........	-327.66
	708	1.418	-8.70725E-001	-7.90719E-007	0.00000E+000	-8.70000E-001	1.39195E-003	7	...........	-327.66
	709	1.42	-8.60661E-001	-7.30832E-007	0.00000E+000	-8.60000E-001	1.45402E-003	7	...........	-327.66
	710	1.422	-8.50690E-001	-6.77187E-007	0.00000E+000	-8.50000E-001	1.39712E-003	7	...........	-327.66
	711	1.424	-8.40711E-001	-6.27835E-007	0.00000E+000	-8.40000E-001	1.42815E-003	7	...........	-327.66
	712	1.426	-8.30605E-001	-5.82381E-007	0.00000E+000	-8.30000E-001	1.42988E-003	7	...........	-327.66
	713	1.428	-8.20724E-001	-5.38478E-007	0.00000E+000	-8.20000E-001	1.44712E-003	7	...........	-327.66
	714	1.43	-8.10646E-001	-4.91420E-007	0.00000E+000	-8.10000E-001	1.43505E-003	7	...........	-327.66
	715	1.432	-8.00686E-001	-4.48828E-007	0.00000E+000	-8.00000E-001	1.45402E-003	7	...........	-327.66
	716	1.434	-7.90670E-001	-4.02908E-007	0.00000E+000	-7.90000E-001	1.45229E-003	7	...........	-327.66
	717	1.436	-7.80575E-001	-3.53591E-007	0.00000E+000	-7.80000E-001	1.45229E-003	7	...........	-327.66
	718	1.438	-7.70674E-001	-3.04877E-007	0.00000E+000	-7.70000E-001	1.45229E-003	7	...........	-327.66
	719	1.44	-7.60713E-001	-2.49128E-007	0.00000E+000	-7.60000E-001	1.41264E-003	7	...........	-327.66
	720	1.442	-7.50705E-001	-1.90017E-007	0.00000E+000	-7.50000E-001	1.40574E-003	7	...........	-327.66
	721	1.444	-7.40722E-001	-1.25767E-007	0.00000E+000	-7.40000E-001	1.40057E-003	7	...........	-327.66
	722	1.446	-7.30696E-001	-5.42915E-008	0.00000E+000	-7.30000E-001	1.40919E-003	7	...........	-327.66
	723	1.448	-7.20752E-001	2.65644E-008	0.00000E+000	-7.20000E-001	1.44712E-003	7	...........	-327.66
	724	1.45	-7.10710E-001	1.14594E-007	0.00000E+000	-7.10000E-001	1.47298E-003	7	...........	-327.66
	725	1.452	-7.00721E-001	2.11848E-007	0.00000E+000	-7.00000E-001	1.45919E-003	7	...........	-327.66
	726	1.454	-6.90749E-001	3.22329E-007	0.00000E+000	-6.90000E-001	1.42643E-003	7	...........	-327.66
	727	1.456	-6.80683E-001	4.44587E-007	0.00000E+000	-6.80000E-001	1.44884E-003	7	...........	-327.66
	728	1.458	-6.70687E-001	5.80674E-007	0.00000E+000	-6.70000E-001	1.48678E-003	7	...........	-327.66
	729	1.46	-6.60736E-001	7.31678E-007	0.00000E+000	-6.60000E-001	1.45919E-003	7	...........	-327.66
	730	1.462	-6.50682E-001	9.00356E-007	0.00000E+000	-6.50000E-001	1.41953E-003	7	...........	-327.66
	731	1.464	-6.40760E-001	1.08538E-006	0.00000E+000	-6.40000E-001	1.46264E-003	7	...........	-327.66
	732	1.466	-6.30718E-001	1.29094E-006	0.00000E+000	-6.30000E-001	1.48505E-003	7	...........	-327.66
	733	1.468	-6.20746E-001	1.51308E-006	0.00000E+000	-6.20000E-001	1.42988E-003	7	...........	-327.66
	734	1.47	-6.10767E-001	1.75704E-006	0.00000E+000	-6.10000E-001	1.42126E-003	7	...........	-327.66
	735	1.472	-6.00780E-001	2.02104E-006	0.00000E+000	-6.00000E-001	1.42298E-003	7	...........	-327.66
	736	1.474	-5.90749E-001	2.30310E-006	0.00000E+000	-5.90000E-001	1.44712E-003	7	...........	-327.66
	737	1.476	-5.80705E-001	2.60285E-006	0.00000E+000	-5.80000E-001	1.41953E-003	7	...........	-327.66
	738	1.478	-5.70732E-001	2.92167E-006	0.00000E+000	-5.70000E-001	1.38333E-003	7	...........	-327.66
	739	1.48	-5.60786E-001	3.25133E-006	0.00000E+000	-5.60000E-001	1.44540E-003	7	...........	-327.66
	740	1.482	-5.50655E-001	3.58639E-006	0.00000E+000	-5.50000E-001	1.38333E-003	7	...........	-327.66
	741	1.484	-5.40760E-001	3.92132E-006	0.00000E+000	-5.40000E-001	1.38333E-003	7	...........	-327.66
	742	1.486	-5.30798E-001	4.24709E-006	0.00000E+000	-5.30000E-001	1.46436E-003	7	...........	-327.66
	743	1.488	-5.20772E-001	4.54152E-006	0.00000E+000	-5.20000E-001	1.40229E-003	7	...........	-327.66
	744	1.49	-5.10764E-001	4.79670E-006	0.00000E+000	-5.10000E-001	1.47298E-003	7	...........	-327.66
	745	1.492	-5.00716E-001	5.00235E-006	0.00000E+000	-5.00000E-001	1.43678E-003	7	...........	-327.66
	746	1.494	-4.90761E-001	5.14714E-006	0.00000E+000	-4.90000E-001	1.40574E-003	7	...........	-327.66
	747	1.496	-4.80773E-001	5.23086E-006	0.00000E+000	-4.80000E-001	1.41091E-003	7	...........	-327.66
	748	1.498	-4.70697E-001	5.25716E-006	0.00000E+000	-4.70000E-001	1.39367E-003	7	...........	-327.66
	749	1.5	-4.60798E-001	5.23591E-006	0.00000E+000	-4.60000E-001	1.44540E-003	7	...........	-327.66
	750	1.502	-4.50737E-001	5.17902E-006	0.00000E+000	-4.50000E-001	1.49195E-003	7	...........	-327.66
	751	1.504	-4.40770E-001	5.09813E-006	0.00000E+000	-4.40000E-001	1.42815E-003	7	...........	-327.66
	752	1.506	-4.30776E-001	5.00636E-006	0.00000E+000	-4.30000E-001	1.44195E-003	7	...........	-327.66
	753	1.508	-4.20749E-001	4.90902E-006	0.00000E+000	-4.20000E-001	1.43333E-003	7	...........	-327.66
	754	1.51	-4.10799E-001	4.81542E-006	0.00000E+000	-4.10000E-001	1.43678E-003	7	...........	-327.66
	755	1.512	-4.00798E-001	4.72971E-006	0.00000E+000	-4.00000E-001	1.48333E-003	7	...........	-327.66
	756	1.514	-3.90742E-001	4.65123E-006	0.00000E+000	-3.90000E-001	1.44022E-003	7	...........	-327.66
	757	1.516	-3.80785E-001	4.58260E-006	0.00000E+000	-3.80000E-001	1.42643E-003	7	...........	-327.66
	758	1.518	-3.70774E-001	4.52311E-006	0.00000E+000	-3.70000E-001	1.45747E-003	7	...........	-327.66
	759	1.52	-3.60800E-001	4.47405E-006	0.00000E+000	-3.60000E-001	1.39022E-003	7	...........	-327.66
	760	1.522	-3.50786E-001	4.43549E-006	0.00000E+000	-3.50000E-001	1.40747E-003	7	...........	-327.66
	761	1.524	-3.40775E-001	4.40435E-006	0.00000E+000	-3.40000E-001	1.39712E-003	7	...........	-327.66
	762	1.526	-3.30813E-001	4.38023E-006	0.00000E+000	-3.30000E-001	1.38505E-003	7	...........	-327.66
	763	1.528	-3.20778E-001	4.35869E-006	0.00000E+000	-3.20000E-001	1.44195E-003	7	...........	-327.66
	764	1.53	-3.10771E-001	4.34255E-006	0.00000E+000	-3.10000E-001	1.39367E-003	7	...........	-327.66
	765	1.532	-3.00788E-001	4.32593E-006	0.00000E+000	-3.00000E-001	1.46953E-003	7	...........	-327.66
	766	1.534	-2.90748E-001	4.31230E-006	0.00000E+000	-2.90000E-001	1.49367E-003	7	...........	-327.66
	767	1.536	-2.80806E-001	4.30091E-006	0.00000E+000	-2.80000E-001	1.45057E-003	7	...........	-327.66
	768	1.538	-2.70743E-001	4.29002E-006	0.00000E+000	-2.70000E-001	1.48678E-003	7	...........	-327.66
	769	1.54	-2.60774E-001	4.28135E-006	0.00000E+000	-2.60000E-001	1.42298E-003	7	...........	-327.66
	770	1.542	-2.50804E-001	4.27321E-006	0.00000E+000	-2.50000E-001	1.42298E-003	7	...........	-327.66
	771	1.544	-2.40774E-001	4.26644E-006	0.00000E+000	-2.40000E-001	1.44884E-003	7	...........	-327.66
	772	1.546	-2.30791E-001	4.26107E-006	0.00000E+000	-2.30000E-001	1.43160E-003	7	...........	-327.66
	773	1.548	-2.20756E-001	4.25505E-006	0.00000E+000	-2.20000E-001	1.43678E-003	7	...........	-327.66
	774	1.55	-2.10794E-001	4.25083E-006	0.00000E+000	-2.10000E-001	1.43678E-003	7	...........	-327.66
	775	1.552	-2.00830E-001	4.24479E-006	0.00000E+000	-2.00000E-001	1.42815E-003	7	...........	-327.66
	776	1.554	-1.90765E-001	4.24107E-006	0.00000E+000	-1.90000E-001	1.42988E-003	7	...........	-327.66
	777	1.556	-1.80807E-001	4.23729E-006	0.00000E+000	-1.80000E-001	1.39367E-003	7	...........	-327.66
	778	1.558	-1.70796E-001	4.23391E-006	0.00000E+000	-1.70000E-001	1.46609E-003	7	...........	-327.66
	779	1.56	-1.60785E-001	4.22984E-006	0.00000E+000	-1.60000E-001	1.42643E-003	7	...........	-327.66
	780	1.562	-1.50814E-001	4.22846E-006	0.00000E+000	-1.50000E-001	1.43678E-003	7	...........	-327.66
	781	1.564	-1.40778E-001	4.22496E-006	0.00000E+000	-1.40000E-001	1.39884E-003	7	...........	-327.66
	782	1.566	-1.30811E-001	4.22412E-006	0.00000E+000	-1.30000E-001	1.40574E-003	7	...........	-327.66
	783	1.568	-1.20823E-001	4.22133E-006	0.00000E+000	-1.20000E-001	1.40747E-003	7	...........	-327.66
	784	1.57	-1.10793E-001	4.21929E-006	0.00000E+000	-1.10000E-001	1.46091E-003	7	...........	-327.66
	785	1.572	-1.00805E-001	4.21765E-006	0.00000E+000	-1.00000E-001	1.42471E-003	7	...........	-327.66
	786	1.574	-9.07804E-002	4.21555E-006	0.00000E+000	-9.00000E-002	1.38333E-003	7	...........	-327.66
	787	1.576	-8.08063E-002	4.21343E-006	0.00000E+000	-8.00000E-002	1.39367E-003	7	...........	-327.66
	788	1.578	-7.07839E-002	4.21053E-006	0.00000E+000	-7.00000E-002	1.41264E-003	7	...........	-327.66
	789	1.58	-6.07796E-002	4.20743E-006	0.00000E+000	-6.00000E-002	1.41091E-003	7	...........	-327.66
	790	1.582	-5.08244E-002	4.20534E-006	0.00000E+000	-5.00000E-002	1.41264E-003	7	...........	-327.66
	791	1.584	-4.07796E-002	4.20306E-006	0.00000E+000	-4.00000E-002	1.47643E-003	7	...........	-327.66
	792	1.586	-3.07908E-002	4.19908E-006	0.00000E+000	-3.00000E-002	1.43333E-003	7	...........	-327.66
	793	1.588	-2.08046E-002	4.19444E-006	0.00000E+000	-2.00000E-002	1.41091E-003	7	...........	-327.66
	794	1.59	-1.07848E-002	4.19137E-006	0.00000E+000	-1.00000E-002	1.39195E-003	7	...........	-327.66
	795	1.592	-8.02003E-004	4.18644E-006	0.00000E+000	-1.49012E-008	1.39540E-003	7	...........	-327.66
	796	1.594	9.23248E-003	4.18201E-006	0.00000E+000	9.99999E-003	1.47988E-003	7	...........	-327.66
	797	1.596	1.92109E-002	4.17597E-006	0.00000E+000	2.00000E-002	1.43160E-003	7	...........	-327.66
	798	1.598	2.91894E-002	4.17020E-006	0.00000E+000	3.00000E-002	1.39540E-003	7	...........	-327.66
	799	1.6	3.91273E-002	4.16418E-006	0.00000E+000	4.00000E-002	1.41091E-003	7	...........	-327.66
	800	1.602	4.92368E-002	4.15718E-006	0.00000E+000	5.00000E-002	1.37471E-003	7	...........	-327.66
	801	1.604	5.92023E-002	4.14952E-006	0.00000E+000	6.00000E-002	1.39884E-003	7	...........	-327.66
	802	1.606	6.92109E-002	4.14116E-006	0.00000E+000	7.00000E-002	1.44195E-003	7	...........	-327.66
	803	1.608	7.92170E-002	4.13319E-006	0.00000E+000	8.00000E-002	1.40919E-003	7	...........	-327.66
	804	1.61	8.92704E-002	4.12536E-006	0.00000E+000	9.00000E-002	1.47126E-003	7	...........	-327.66
	805	1.612	9.92109E-002	4.11567E-006	0.00000E+000	1.00000E-001	1.45402E-003	7	...........	-327.66
	806	1.614	1.09202E-001	4.10707E-006	0.00000E+000	1.10000E-001	1.48333E-003	7	...........	-327.66
	807	1.616	1.19228E-001	4.09815E-006	0.00000E+000	1.20000E-001	1.40402E-003	7	...........	-327.66
	808	1.618	1.29239E-001	4.08984E-006	0.00000E+000	1.30000E-001	1.46436E-003	7	...........	-327.66
	809	1.62	1.39255E-001	4.07939E-006	0.00000E+000	1.40000E-001	1.47471E-003	7	...........	-327.66
	810	1.622	1.49244E-001	4.06998E-006	0.00000E+000	1.50000E-001	1.43678E-003	7	...........	-327.66
	811	1.624	1.59225E-001	4.06042E-006	0.00000E+000	1.60000E-001	1.40919E-003	7	...........	-327.66
	812	1.626	1.69270E-001	4.05111E-006	0.00000E+000	1.70000E-001	1.39367E-003	7	...........	-327.66
	813	1.628	1.79208E-001	4.04104E-006	0.00000E+000	1.80000E-001	1.49712E-003	7	...........	-327.66
	814	1.63	1.89217E-001	4.03273E-006	0.00000E+000	1.90000E-001	1.47126E-003	7	...........	-327.66
	815	1.632	1.99226E-001	4.02359E-006	0.00000E+000	2.00000E-001	1.45057E-003	7	...........	-327.66
	816	1.634	2.09201E-001	4.01437E-006	0.00000E+000	2.10000E-001	1.46264E-003	7	...........	-327.66
	817	1.636	2.19182E-001	4.00533E-006	0.00000E+000	2.20000E-001	1.37298E-003	7	...........	-327.66
	818	1.638	2.29201E-001	3.99673E-006	0.00000E+000	2.30000E-001	1.40747E-003	7	...........	-327.66
	819	1.64	2.39179E-001	3.98876E-006	0.00000E+000	2.40000E-001	1.44195E-003	7	...........	-327.66
	820	1.642	2.49231E-001	3.98190E-006	0.00000E+000	2.50000E-001	1.40402E-003	7	...........	-327.66
	821	1.644	2.59176E-001	3.97102E-006	0.00000E+000	2.60000E-001	1.40747E-003	7	...........	-327.66
	822	1.646	2.69253E-001	3.96558E-006	0.00000E+000	2.70000E-001	1.44367E-003	7	...........	-327.66
	823	1.648	2.79153E-001	3.95939E-006	0.00000E+000	2.80000E-001	1.44540E-003	7	...........	-327.66
	824	1.65	2.89193E-001	3.95320E-006	0.00000E+000	2.90000E-001	1.44022E-003	7	...........	-327.66
	825	1.652	2.99189E-001	3.94734E-006	0.00000E+000	3.00000E-001	1.44884E-003	7	...........	-327.66
	826	1.654	3.09182E-001	3.94305E-006	0.00000E+000	3.10000E-001	1.42298E-003	7	...........	-327.66
	827	1.656	3.19181E-001	3.93825E-006	0.00000E+000	3.20000E-001	1.41436E-003	7	...........	-327.66
	828	1.658	3.29231E-001	3.93591E-006	0.00000E+000	3.30000E-001	1.44540E-003	7	...........	-327.66
	829	1.66	3.39199E-001	3.93187E-006	0.00000E+000	3.40000E-001	1.46264E-003	7	...........	-327.66
	830	1.662	3.49174E-001	3.93027E-006	0.00000E+000	3.50000E-001	1.38333E-003	7	...........	-327.66
	831	1.664	3.59168E-001	3.93042E-006	0.00000E+000	3.60000E-001	1.43850E-003	7	...........	-327.66
	832	1.666	3.69200E-001	3.93068E-006	0.00000E+000	3.70000E-001	1.45402E-003	7	...........	-327.66
	833	1.668	3.79208E-001	3.93173E-006	0.00000E+000	3.80000E-001	1.38850E-003	7	...........	-327.66
	834	1.67	3.89164E-001	3.93304E-006	0.00000E+000	3.90000E-001	1.43505E-003	7	...........	-327.66
	835	1.672	3.99202E-001	3.93642E-006	0.00000E+000	4.00000E-001	1.42815E-003	7	...........	-327.66
	836	1.674	4.09158E-001	3.94017E-006	0.00000E+000	4.10000E-001	1.43333E-003	7	...........	-327.66
	837	1.676	4.19183E-001	3.94443E-006	0.00000E+000	4.20000E-001	1.39884E-003	7	...........	-327.66
	838	1.678	4.29158E-001	3.95110E-006	0.00000E+000	4.30000E-001	1.44195E-003	7	...........	-327.66
	839	1.68	4.39158E-001	3.95858E-006	0.00000E+000	4.40000E-001	1.45057E-003	7	...........	-327.66
	840	1.682	4.49217E-001	3.96707E-006	0.00000E+000	4.50000E-001	1.45574E-003	7	...........	-327.66
	841	1.684	4.59178E-001	3.97598E-006	0.00000E+000	4.60000E-001	1.48850E-003	7	...........	-327.66
	842	1.686	4.69152E-001	3.98755E-006	0.00000E+000	4.70000E-001	1.40747E-003	7	...........	-327.66
	843	1.688	4.79167E-001	3.99833E-006	0.00000E+000	4.80000E-001	1.42471E-003	7	...........	-327.66
	844	1.69	4.89151E-001	4.01204E-006	0.00000E+000	4.90000E-001	1.43505E-003	7	...........	-327.66
	845	1.692	4.99202E-001	4.02532E-006	0.00000E+000	5.00000E-001	1.41091E-003	7	...........	-327.66
	846	1.694	5.09154E-001	4.04092E-006	0.00000E+000	5.10000E-001	1.47988E-003	7	...........	-327.66
	847	1.696	5.19163E-001	4.05792E-006	0.00000E+000	5.20000E-001	1.41436E-003	7	...........	-327.66
	848	1.698	5.29168E-001	4.07520E-006	0.00000E+000	5.30000E-001	1.41091E-003	7	...........	-327.66
	849	1.7	5.39178E-001	4.09453E-006	0.00000E+000	5.40000E-001	1.42988E-003	7	...........	-327.66
	850	1.702	5.49169E-001	4.11510E-006	0.00000E+000	5.50000E-001	1.41609E-003	7	...........	-327.66
	851	1.704	5.59178E-001	4.13556E-006	0.00000E+000	5.60000E-001	1.46953E-003	7	...........	-327.66
	852	1.706	5.69174E-001	4.15840E-006	0.00000E+000	5.70000E-001	1.41781E-003	7	...........	-327.66
	853	1.708	5.79187E-001	4.18134E-006	0.00000E+000	5.80000E-001	1.42988E-003	7	...........	-327.66
	854	1.71	5.89173E-001	4.20717E-006	0.00000E+000	5.90000E-001	1.45229E-003	7	...........	-327.66
	855	1.712	5.99161E-001	4.23148E-006	0.00000E+000	6.00000E-001	1.42471E-003	7	...........	-327.66
CURVE4	TABLE
	Pt	T	Vf	Im	Vu	Sig	Ach	IERange	Over	Temp
	#	s	V vs. Ref.	A	V	V	V	#	bits	deg C
	856	1.714	5.90749E-001	2.80986E-006	0.00000E+000	5.90000E-001	1.43333E-003	7	...........	-327.66
	857	1.716	5.80774E-001	2.02866E-006	0.00000E+000	5.80000E-001	1.44195E-003	7	...........	-327.66
	858	1.718	5.70730E-001	1.45572E-006	0.00000E+000	5.70000E-001	1.45747E-003	7	...........	-327.66
	859	1.72	5.60758E-001	9.88989E-007	0.00000E+000	5.60000E-001	1.48850E-003	7	...........	-327.66
	860	1.722	5.50766E-001	5.91021E-007	0.00000E+000	5.50000E-001	1.45747E-003	7	...........	-327.66
	861	1.724	5.40782E-001	2.41576E-007	0.00000E+000	5.40000E-001	1.37988E-003	7	...........	-327.66
	862	1.726	5.30776E-001	-6.88452E-008	0.00000E+000	5.30000E-001	1.42643E-003	7	...........	-327.66
	863	1.728	5.20776E-001	-3.47107E-007	0.00000E+000	5.20000E-001	1.41264E-003	7	...........	-327.66
	864	1.73	5.10752E-001	-5.97572E-007	0.00000E+000	5.10000E-001	1.37815E-003	7	...........	-327.66
	865	1.732	5.00795E-001	-8.25897E-007	0.00000E+000	5.00000E-001	1.44195E-003	7	...........	-327.66
	866	1.734	4.90757E-001	-1.03465E-006	0.00000E+000	4.90000E-001	1.42643E-003	7	...........	-327.66
	867	1.736	4.80746E-001	-1.22600E-006	0.00000E+000	4.80000E-001	1.43333E-003	7	...........	-327.66
	868	1.738	4.70785E-001	-1.40139E-006	0.00000E+000	4.70000E-001	1.42988E-003	7	...........	-327.66
	869	1.74	4.60782E-001	-1.56446E-006	0.00000E+000	4.60000E-001	1.40402E-003	7	...........	-327.66
	870	1.742	4.50816E-001	-1.71441E-006	0.00000E+000	4.50000E-001	1.39367E-003	7	...........	-327.66
	871	1.744	4.40749E-001	-1.85493E-006	0.00000E+000	4.40000E-001	1.47988E-003	7	...........	-327.66
	872	1.746	4.30770E-001	-1.98338E-006	0.00000E+000	4.30000E-001	1.41781E-003	7	...........	-327.66
	873	1.748	4.20817E-001	-2.10385E-006	0.00000E+000	4.20000E-001	1.47643E-003	7	...........	-327.66
	874	1.75	4.10774E-001	-2.21622E-006	0.00000E+000	4.10000E-001	1.46609E-003	7	...........	-327.66
	875	1.752	4.00792E-001	-2.32193E-006	0.00000E+000	4.00000E-001	1.41264E-003	7	...........	-327.66
	876	1.754	3.90785E-001	-2.42056E-006	0.00000E+000	3.90000E-001	1.40919E-003	7	...........	-327.66
	877	1.756	3.80809E-001	-2.51270E-006	0.00000E+000	3.80000E-001	1.44022E-003	7	...........	-327.66
	878	1.758	3.70813E-001	-2.59897E-006	0.00000E+000	3.70000E-001	1.42988E-003	7	...........	-327.66
	879	1.76	3.60766E-001	-2.68229E-006	0.00000E+000	3.60000E-001	1.43678E-003	7	...........	-327.66
	880	1.762	3.50833E-001	-2.75926E-006	0.00000E+000	3.50000E-001	1.45402E-003	7	...........	-327.66
	881	1.764	3.40823E-001	-2.83108E-006	0.00000E+000	3.40000E-001	1.39540E-003	7	...........	-327.66
	882	1.766	3.30797E-001	-2.90042E-006	0.00000E+000	3.30000E-001	1.38333E-003	7	...........	-327.66
	883	1.768	3.20803E-001	-2.96650E-006	0.00000E+000	3.20000E-001	1.39367E-003	7	...........	-327.66
	884	1.77	3.10784E-001	-3.02775E-006	0.00000E+000	3.10000E-001	1.35747E-003	7	...........	-327.66
	885	1.772	3.00779E-001	-3.08827E-006	0.00000E+000	3.00000E-001	1.40919E-003	7	...........	-327.66
	886	1.774	2.90807E-001	-3.14370E-006	0.00000E+000	2.90000E-001	1.36609E-003	7	...........	-327.66
	887	1.776	2.80771E-001	-3.19822E-006	0.00000E+000	2.80000E-001	1.41264E-003	7	...........	-327.66
	888	1.778	2.70831E-001	-3.24962E-006	0.00000E+000	2.70000E-001	1.39540E-003	7	...........	-327.66
	889	1.78	2.60791E-001	-3.30060E-006	0.00000E+000	2.60000E-001	1.41609E-003	7	...........	-327.66
	890	1.782	2.50831E-001	-3.34710E-006	0.00000E+000	2.50000E-001	1.46264E-003	7	...........	-327.66
	891	1.784	2.40800E-001	-3.39363E-006	0.00000E+000	2.40000E-001	1.41953E-003	7	...........	-327.66
	892	1.786	2.30807E-001	-3.43736E-006	0.00000E+000	2.30000E-001	1.43678E-003	7	...........	-327.66
	893	1.788	2.20807E-001	-3.48169E-006	0.00000E+000	2.20000E-001	1.39540E-003	7	...........	-327.66
	894	1.79	2.10794E-001	-3.52271E-006	0.00000E+000	2.10000E-001	1.40229E-003	7	...........	-327.66
	895	1.792	2.00804E-001	-3.56253E-006	0.00000E+000	2.00000E-001	1.46264E-003	7	...........	-327.66
	896	1.794	1.90856E-001	-3.60250E-006	0.00000E+000	1.90000E-001	1.49540E-003	7	...........	-327.66
	897	1.796	1.80825E-001	-3.63988E-006	0.00000E+000	1.80000E-001	1.42815E-003	7	...........	-327.66
	898	1.798	1.70880E-001	-3.67675E-006	0.00000E+000	1.70000E-001	1.41953E-003	7	...........	-327.66
	899	1.8	1.60803E-001	-3.71208E-006	0.00000E+000	1.60000E-001	1.43333E-003	7	...........	-327.66
	900	1.802	1.50799E-001	-3.74628E-006	0.00000E+000	1.50000E-001	1.39540E-003	7	...........	-327.66