File: Test_Data_Files/20250509_R_IF0011_IIA42_E05_PBSair_PEDOT_CV50.DTA
EXPLAIN
TAG	CV
TITLE	LABEL	CV50	Test Identifier
DATE	LABEL	5/9/2025	Date
TIME	LABEL	15:05:56	Time
NOTES	NOTES	1	Notes...

PSTAT	PSTAT	REF600P-43058	Potentiostat
VINIT	POTEN	0.00000E+000	T	Initial E (V)
VLIMIT1	POTEN	-9.00000E-001	F	Scan Limit 1 (V)
VLIMIT2	POTEN	6.00000E-001	F	Scan Limit 2 (V)
VFINAL	POTEN	0.00000E+000	T	Final E (V)
SCANRATE	QUANT	4.99999E+001	Scan Rate (mV/s)
STEPSIZE	QUANT	1.00000E+001	Step Size (mV)
CYCLES	IQUANT	3	Cycles (#)
IMODE	SELECTOR	1	I/E Range Mode
IRANGE	QUANT	1.00000E-003	Max Current (mA)
AREA	QUANT	1.00000E+000	Sample Area (cm^2)
EQDELAY	QUANT	5.00000E+000	Equil. Time (s)
IRCOMP	SELECTOR	0	IRComp
PFCOR	QUANT	5.00000E+001	PF Corr. (ohm)
SAMPLINGMODE	SELECTOR	2	Sampling Mode
EOC	QUANT	0.1578694	Open Circuit (V)
ELECTRODETYPE	SELECTOR	0	Electrode Type
STRIPPING	TOGGLE	F	Used for Stripping
SEQUENCER	TOGGLE	TRUE	Run as Sequence
PSTATMODEL	IQUANT	7	Pstat Model
PSTATSECTION	LABEL	REF600P-43058	Pstat Section
PSTATSERIALNO	LABEL	43058	Pstat Serial Number
CTRLMODE	IQUANT	1	Control Mode
ELECTROMETER	IQUANT	0	RE=0 or CS=1
IESTAB	IQUANT	2	I/E Stability
CASPEED	IQUANT	4	Control Amp Speed
CONVENTION	IQUANT	1	Current Convention
ICHRANGE	IQUANT	2	Ich Range
ICHRANGEMODE	TOGGLE	F	Ich Auto Range
ICHOFFSETENABLE	TOGGLE	F	Ich Offset Enable
ICHOFFSET	QUANT	0	Ich Offset (V)
ICHFILTER	IQUANT	2	Ich Filter
VCHRANGE	IQUANT	2	Vch Range
VCHRANGEMODE	TOGGLE	F	Vch Auto Range
VCHOFFSETENABLE	TOGGLE	F	Vch Offset Enable
VCHOFFSET	QUANT	0	Vch Offset (V)
VCHFILTER	IQUANT	2	Vch Filter
ACHRANGE	IQUANT	2	Ach Range
ACHOFFSETENABLE	TOGGLE	F	Ach Offset Enable
ACHOFFSET	QUANT	0	Ach Offset (V)
ACHFILTER	IQUANT	1	Ach Filter
IERANGELOWERLIMIT	IQUANT	1	I/E Range Lower Limit
IERANGEMODE	TOGGLE	F	I/E AutoRange
IERANGE	IQUANT	6	I/E Range
POSFEEDENABLE	TOGGLE	F	Positive Feedback IR Comp
POSFEEDRESISTANCE	QUANT	0	Positive Feedback Resistance (ohm)
ACHSELECT	IQUANT	4	Ach Select
SENSECABLEID	IQUANT	7	Sense Cable ID
PWRCABLEID	IQUANT	7	Power Cable ID
DCCALDATE	LABEL	5/8/2025	DC Calibration Date
ACCALDATE	LABEL	5/8/2025	AC Calibration Date
THERMOSELECT	IQUANT	1	Thermo Select
FRAMEWORKVERSION	LABEL	7.10.4	Framework Version
INSTRUMENTVERSION	LABEL	5.01	Instrument Version
COMMVERSION	LABEL	5.10	Communications Version
CPUPLDVERSION	LABEL	6.00	CPU PLD Version
CTRLPLDVERSION	LABEL	3.21	CTRL PLD Version
PSTATPLDVERSION	LABEL	0.00	PSTAT PLD Version
CURVE1	TABLE
	Pt	T	Vf	Im	Vu	Sig	Ach	IERange	Over	Temp
	#	s	V vs. Ref.	A	V	V	V	#	bits	deg C
	0	0.2	1.57891E-001	3.94995E-010	0.00000E+000	1.57850E-001	1.44803E-003	6	...........	-327.66
	1	0.4	1.47970E-001	-3.03238E-008	0.00000E+000	1.47850E-001	1.43769E-003	6	...........	-327.66
	2	0.6	1.37919E-001	-3.13137E-008	0.00000E+000	1.37850E-001	1.43902E-003	6	...........	-327.66
	3	0.8	1.27917E-001	-3.16914E-008	0.00000E+000	1.27850E-001	1.43422E-003	6	...........	-327.66
	4	1	1.17919E-001	-3.19654E-008	0.00000E+000	1.17850E-001	1.43412E-003	6	...........	-327.66
	5	1.2	1.07974E-001	-3.22626E-008	0.00000E+000	1.07850E-001	1.44041E-003	6	...........	-327.66
	6	1.4	9.79102E-002	-3.24919E-008	0.00000E+000	9.78500E-002	1.44501E-003	6	...........	-327.66
	7	1.6	8.79257E-002	-3.27748E-008	0.00000E+000	8.78500E-002	1.44586E-003	6	...........	-327.66
	8	1.8	7.78930E-002	-3.31008E-008	0.00000E+000	7.78500E-002	1.44618E-003	6	...........	-327.66
	9	2	6.79581E-002	-3.34139E-008	0.00000E+000	6.78500E-002	1.44269E-003	6	...........	-327.66
	10	2.2	5.79027E-002	-3.36764E-008	0.00000E+000	5.78500E-002	1.42852E-003	6	...........	-327.66
	11	2.4	4.79218E-002	-3.40137E-008	0.00000E+000	4.78500E-002	1.43747E-003	6	...........	-327.66
	12	2.6	3.79188E-002	-3.43640E-008	0.00000E+000	3.78500E-002	1.44693E-003	6	...........	-327.66
	13	2.8	2.79643E-002	-3.47072E-008	0.00000E+000	2.78500E-002	1.43411E-003	6	...........	-327.66
	14	3	1.79293E-002	-3.50684E-008	0.00000E+000	1.78500E-002	1.44378E-003	6	...........	-327.66
	15	3.2	7.92282E-003	-3.54306E-008	0.00000E+000	7.84999E-003	1.43847E-003	6	...........	-327.66
	16	3.4	-2.14384E-003	-3.58790E-008	0.00000E+000	-2.15001E-003	1.45685E-003	6	...........	-327.66
	17	3.6	-1.20219E-002	-3.62344E-008	0.00000E+000	-1.21500E-002	1.45395E-003	6	...........	-327.66
	18	3.8	-2.21380E-002	-3.66420E-008	0.00000E+000	-2.21500E-002	1.43899E-003	6	...........	-327.66
	19	4	-3.20796E-002	-3.70785E-008	0.00000E+000	-3.21500E-002	1.45123E-003	6	...........	-327.66
	20	4.2	-4.21017E-002	-3.74984E-008	0.00000E+000	-4.21500E-002	1.44381E-003	6	...........	-327.66
	21	4.4	-5.20308E-002	-3.79403E-008	0.00000E+000	-5.21500E-002	1.45463E-003	6	...........	-327.66
	22	4.6	-6.21059E-002	-3.83819E-008	0.00000E+000	-6.21500E-002	1.45296E-003	6	...........	-327.66
	23	4.8	-7.21014E-002	-3.89175E-008	0.00000E+000	-7.21500E-002	1.45216E-003	6	...........	-327.66
	24	5	-8.21448E-002	-3.94104E-008	0.00000E+000	-8.21500E-002	1.44509E-003	6	...........	-327.66
	25	5.2	-9.20440E-002	-3.98642E-008	0.00000E+000	-9.21500E-002	1.44117E-003	6	...........	-327.66
	26	5.4	-1.02173E-001	-4.04176E-008	0.00000E+000	-1.02150E-001	1.43239E-003	6	...........	-327.66
	27	5.6	-1.12074E-001	-4.09633E-008	0.00000E+000	-1.12150E-001	1.44421E-003	6	...........	-327.66
	28	5.8	-1.22146E-001	-4.16427E-008	0.00000E+000	-1.22150E-001	1.44789E-003	6	...........	-327.66
	29	6	-1.32034E-001	-4.21255E-008	0.00000E+000	-1.32150E-001	1.44556E-003	6	...........	-327.66
	30	6.2	-1.42115E-001	-4.28067E-008	0.00000E+000	-1.42150E-001	1.45398E-003	6	...........	-327.66
	31	6.4	-1.52130E-001	-4.33872E-008	0.00000E+000	-1.52150E-001	1.44959E-003	6	...........	-327.66
	32	6.6	-1.62145E-001	-4.41017E-008	0.00000E+000	-1.62150E-001	1.45611E-003	6	...........	-327.66
	33	6.8	-1.72031E-001	-4.47155E-008	0.00000E+000	-1.72150E-001	1.45074E-003	6	...........	-327.66
	34	7	-1.82140E-001	-4.54044E-008	0.00000E+000	-1.82150E-001	1.43911E-003	6	...........	-327.66
	35	7.2	-1.92090E-001	-4.61450E-008	0.00000E+000	-1.92150E-001	1.44204E-003	6	...........	-327.66
	36	7.4	-2.02150E-001	-4.69152E-008	0.00000E+000	-2.02150E-001	1.44314E-003	6	...........	-327.66
	37	7.6	-2.12005E-001	-4.76759E-008	0.00000E+000	-2.12150E-001	1.45163E-003	6	...........	-327.66
	38	7.8	-2.22075E-001	-4.83955E-008	0.00000E+000	-2.22150E-001	1.44347E-003	6	...........	-327.66
	39	8	-2.32077E-001	-4.92094E-008	0.00000E+000	-2.32150E-001	1.44813E-003	6	...........	-327.66
	40	8.2	-2.42053E-001	-5.00443E-008	0.00000E+000	-2.42150E-001	1.45263E-003	6	...........	-327.66
	41	8.4	-2.52018E-001	-5.09214E-008	0.00000E+000	-2.52150E-001	1.45868E-003	6	...........	-327.66
	42	8.6	-2.62071E-001	-5.16985E-008	0.00000E+000	-2.62150E-001	1.44456E-003	6	...........	-327.66
	43	8.8	-2.72067E-001	-5.25220E-008	0.00000E+000	-2.72150E-001	1.43756E-003	6	...........	-327.66
	44	9	-2.82075E-001	-5.34700E-008	0.00000E+000	-2.82150E-001	1.44828E-003	6	...........	-327.66
	45	9.2	-2.91981E-001	-5.42998E-008	0.00000E+000	-2.92150E-001	1.44453E-003	6	...........	-327.66
	46	9.4	-3.02087E-001	-5.52114E-008	0.00000E+000	-3.02150E-001	1.45186E-003	6	...........	-327.66
	47	9.6	-3.12061E-001	-5.61054E-008	0.00000E+000	-3.12150E-001	1.45273E-003	6	...........	-327.66
	48	9.8	-3.22077E-001	-5.70560E-008	0.00000E+000	-3.22150E-001	1.45116E-003	6	...........	-327.66
	49	10	-3.32052E-001	-5.79770E-008	0.00000E+000	-3.32150E-001	1.45481E-003	6	...........	-327.66
	50	10.2	-3.42093E-001	-5.88992E-008	0.00000E+000	-3.42150E-001	1.43877E-003	6	...........	-327.66
	51	10.4	-3.52103E-001	-5.99530E-008	0.00000E+000	-3.52150E-001	1.45405E-003	6	...........	-327.66
	52	10.6	-3.62078E-001	-6.09049E-008	0.00000E+000	-3.62150E-001	1.45218E-003	6	...........	-327.66
	53	10.8	-3.72004E-001	-6.19026E-008	0.00000E+000	-3.72150E-001	1.45081E-003	6	...........	-327.66
	54	11	-3.82086E-001	-6.28751E-008	0.00000E+000	-3.82150E-001	1.44403E-003	6	...........	-327.66
	55	11.2	-3.92065E-001	-6.39206E-008	0.00000E+000	-3.92150E-001	1.45246E-003	6	...........	-327.66
	56	11.4	-4.02084E-001	-6.48849E-008	0.00000E+000	-4.02150E-001	1.45605E-003	6	...........	-327.66
	57	11.6	-4.11992E-001	-6.58232E-008	0.00000E+000	-4.12150E-001	1.44941E-003	6	...........	-327.66
	58	11.8	-4.22042E-001	-6.67904E-008	0.00000E+000	-4.22150E-001	1.44424E-003	6	...........	-327.66
	59	12	-4.32041E-001	-6.77556E-008	0.00000E+000	-4.32150E-001	1.44266E-003	6	...........	-327.66
	60	12.2	-4.42063E-001	-6.88654E-008	0.00000E+000	-4.42150E-001	1.44888E-003	6	...........	-327.66
	61	12.4	-4.51960E-001	-6.97705E-008	0.00000E+000	-4.52150E-001	1.46015E-003	6	...........	-327.66
	62	12.6	-4.62041E-001	-7.08077E-008	0.00000E+000	-4.62150E-001	1.45144E-003	6	...........	-327.66
	63	12.8	-4.71965E-001	-7.18190E-008	0.00000E+000	-4.72150E-001	1.45561E-003	6	...........	-327.66
	64	13	-4.82045E-001	-7.30178E-008	0.00000E+000	-4.82150E-001	1.45263E-003	6	...........	-327.66
	65	13.2	-4.92001E-001	-7.39955E-008	0.00000E+000	-4.92150E-001	1.45756E-003	6	...........	-327.66
	66	13.4	-5.02028E-001	-7.50474E-008	0.00000E+000	-5.02150E-001	1.44794E-003	6	...........	-327.66
	67	13.6	-5.12009E-001	-7.61994E-008	0.00000E+000	-5.12150E-001	1.44886E-003	6	...........	-327.66
	68	13.8	-5.22057E-001	-7.73714E-008	0.00000E+000	-5.22150E-001	1.44819E-003	6	...........	-327.66
	69	14	-5.31983E-001	-7.86032E-008	0.00000E+000	-5.32150E-001	1.46050E-003	6	...........	-327.66
	70	14.2	-5.42075E-001	-7.95388E-008	0.00000E+000	-5.42150E-001	1.45666E-003	6	...........	-327.66
	71	14.4	-5.51975E-001	-8.08323E-008	0.00000E+000	-5.52150E-001	1.45891E-003	6	...........	-327.66
	72	14.6	-5.62085E-001	-8.19914E-008	0.00000E+000	-5.62150E-001	1.45736E-003	6	...........	-327.66
	73	14.8	-5.71981E-001	-8.31711E-008	0.00000E+000	-5.72150E-001	1.45796E-003	6	...........	-327.66
	74	15	-5.82029E-001	-8.41756E-008	0.00000E+000	-5.82150E-001	1.44404E-003	6	...........	-327.66
	75	15.2	-5.92033E-001	-8.51899E-008	0.00000E+000	-5.92150E-001	1.45631E-003	6	...........	-327.66
	76	15.4	-6.02046E-001	-8.62487E-008	0.00000E+000	-6.02150E-001	1.46030E-003	6	...........	-327.66
	77	15.6	-6.11977E-001	-8.71603E-008	0.00000E+000	-6.12150E-001	1.46000E-003	6	...........	-327.66
	78	15.8	-6.22013E-001	-8.80329E-008	0.00000E+000	-6.22150E-001	1.46683E-003	6	...........	-327.66
	79	16	-6.31980E-001	-8.87357E-008	0.00000E+000	-6.32150E-001	1.46703E-003	6	...........	-327.66
	80	16.2	-6.42041E-001	-8.93714E-008	0.00000E+000	-6.42150E-001	1.46985E-003	6	...........	-327.66
	81	16.4	-6.51949E-001	-8.98466E-008	0.00000E+000	-6.52150E-001	1.46181E-003	6	...........	-327.66
	82	16.6	-6.62027E-001	-9.00394E-008	0.00000E+000	-6.62150E-001	1.45780E-003	6	...........	-327.66
	83	16.8	-6.72010E-001	-9.00005E-008	0.00000E+000	-6.72150E-001	1.45116E-003	6	...........	-327.66
	84	17	-6.82005E-001	-8.94283E-008	0.00000E+000	-6.82150E-001	1.45961E-003	6	...........	-327.66
	85	17.2	-6.91983E-001	-8.84367E-008	0.00000E+000	-6.92150E-001	1.46470E-003	6	...........	-327.66
	86	17.4	-7.01977E-001	-8.68767E-008	0.00000E+000	-7.02150E-001	1.47077E-003	6	...........	-327.66
	87	17.6	-7.12024E-001	-8.48275E-008	0.00000E+000	-7.12150E-001	1.47098E-003	6	...........	-327.66
	88	17.8	-7.22050E-001	-8.21190E-008	0.00000E+000	-7.22150E-001	1.45381E-003	6	...........	-327.66
	89	18	-7.31961E-001	-7.90000E-008	0.00000E+000	-7.32150E-001	1.45836E-003	6	...........	-327.66
	90	18.2	-7.42058E-001	-7.54351E-008	0.00000E+000	-7.42150E-001	1.44776E-003	6	...........	-327.66
	91	18.4	-7.52029E-001	-7.16821E-008	0.00000E+000	-7.52150E-001	1.46066E-003	6	...........	-327.66
	92	18.6	-7.62042E-001	-6.77606E-008	0.00000E+000	-7.62150E-001	1.46138E-003	6	...........	-327.66
	93	18.8	-7.71981E-001	-6.36232E-008	0.00000E+000	-7.72150E-001	1.45588E-003	6	...........	-327.66
	94	19	-7.81997E-001	-5.96096E-008	0.00000E+000	-7.82150E-001	1.45835E-003	6	...........	-327.66
	95	19.2	-7.92034E-001	-5.56977E-008	0.00000E+000	-7.92150E-001	1.45930E-003	6	...........	-327.66
	96	19.4	-8.02040E-001	-5.20209E-008	0.00000E+000	-8.02150E-001	1.46196E-003	6	...........	-327.66
	97	19.6	-8.11954E-001	-4.85150E-008	0.00000E+000	-8.12150E-001	1.45825E-003	6	...........	-327.66
	98	19.8	-8.22039E-001	-4.52527E-008	0.00000E+000	-8.22150E-001	1.46288E-003	6	...........	-327.66
	99	20	-8.31987E-001	-4.23309E-008	0.00000E+000	-8.32150E-001	1.45613E-003	6	...........	-327.66
	100	20.2	-8.42054E-001	-3.95940E-008	0.00000E+000	-8.42150E-001	1.46071E-003	6	...........	-327.66
	101	20.4	-8.51967E-001	-3.72176E-008	0.00000E+000	-8.52150E-001	1.45851E-003	6	...........	-327.66
	102	20.6	-8.62018E-001	-3.49864E-008	0.00000E+000	-8.62150E-001	1.46053E-003	6	...........	-327.66
	103	20.8	-8.71981E-001	-3.33276E-008	0.00000E+000	-8.72150E-001	1.47107E-003	6	...........	-327.66
	104	21	-8.81843E-001	-3.15925E-008	0.00000E+000	-8.82150E-001	1.45543E-003	6	...........	-327.66
	105	21.2	-8.91947E-001	-3.03089E-008	0.00000E+000	-8.92150E-001	1.46056E-003	6	...........	-327.66
	106	21.4	-9.02000E-001	-2.89660E-008	0.00000E+000	-9.02150E-001	1.45306E-003	6	...........	-327.66
	107	21.6	-8.92001E-001	-2.51948E-008	0.00000E+000	-8.92150E-001	1.45868E-003	6	...........	-327.66
	108	21.8	-8.82013E-001	-2.32075E-008	0.00000E+000	-8.82150E-001	1.44508E-003	6	...........	-327.66
	109	22	-8.72070E-001	-2.15849E-008	0.00000E+000	-8.72150E-001	1.46512E-003	6	...........	-327.66
	110	22.2	-8.62076E-001	-2.01421E-008	0.00000E+000	-8.62150E-001	1.45403E-003	6	...........	-327.66
	111	22.4	-8.52045E-001	-1.88236E-008	0.00000E+000	-8.52150E-001	1.46123E-003	6	...........	-327.66
	112	22.6	-8.42077E-001	-1.75627E-008	0.00000E+000	-8.42150E-001	1.45435E-003	6	...........	-327.66
	113	22.8	-8.32062E-001	-1.62586E-008	0.00000E+000	-8.32150E-001	1.44841E-003	6	...........	-327.66
	114	23	-8.22066E-001	-1.49237E-008	0.00000E+000	-8.22150E-001	1.44999E-003	6	...........	-327.66
	115	23.2	-8.12026E-001	-1.35174E-008	0.00000E+000	-8.12150E-001	1.44509E-003	6	...........	-327.66
	116	23.4	-8.02031E-001	-1.20085E-008	0.00000E+000	-8.02150E-001	1.46542E-003	6	...........	-327.66
	117	23.6	-7.92065E-001	-1.03459E-008	0.00000E+000	-7.92150E-001	1.45605E-003	6	...........	-327.66
	118	23.8	-7.82030E-001	-8.35122E-009	0.00000E+000	-7.82150E-001	1.46415E-003	6	...........	-327.66
	119	24	-7.72022E-001	-6.22204E-009	0.00000E+000	-7.72150E-001	1.45388E-003	6	...........	-327.66
	120	24.2	-7.62074E-001	-3.70914E-009	0.00000E+000	-7.62150E-001	1.45656E-003	6	...........	-327.66
	121	24.4	-7.52088E-001	-8.12244E-010	0.00000E+000	-7.52150E-001	1.45164E-003	6	...........	-327.66
	122	24.6	-7.42099E-001	2.52056E-009	0.00000E+000	-7.42150E-001	1.45001E-003	6	...........	-327.66
	123	24.8	-7.32004E-001	6.19428E-009	0.00000E+000	-7.32150E-001	1.45349E-003	6	...........	-327.66
	124	25	-7.22069E-001	1.01148E-008	0.00000E+000	-7.22150E-001	1.45521E-003	6	...........	-327.66
	125	25.2	-7.12082E-001	1.43174E-008	0.00000E+000	-7.12150E-001	1.45583E-003	6	...........	-327.66
	126	25.4	-7.02042E-001	1.85598E-008	0.00000E+000	-7.02150E-001	1.46116E-003	6	...........	-327.66
	127	25.6	-6.92030E-001	2.24086E-008	0.00000E+000	-6.92150E-001	1.46178E-003	6	...........	-327.66
	128	25.8	-6.82065E-001	2.55573E-008	0.00000E+000	-6.82150E-001	1.45813E-003	6	...........	-327.66
	129	26	-6.72057E-001	2.76304E-008	0.00000E+000	-6.72150E-001	1.44663E-003	6	...........	-327.66
	130	26.2	-6.62079E-001	2.87524E-008	0.00000E+000	-6.62150E-001	1.43576E-003	6	...........	-327.66
	131	26.4	-6.52018E-001	2.90901E-008	0.00000E+000	-6.52150E-001	1.45466E-003	6	...........	-327.66
	132	26.6	-6.42060E-001	2.90533E-008	0.00000E+000	-6.42150E-001	1.46206E-003	6	...........	-327.66
	133	26.8	-6.32071E-001	2.89745E-008	0.00000E+000	-6.32150E-001	1.46338E-003	6	...........	-327.66
	134	27	-6.22063E-001	2.89350E-008	0.00000E+000	-6.22150E-001	1.46547E-003	6	...........	-327.66
	135	27.2	-6.12040E-001	2.90124E-008	0.00000E+000	-6.12150E-001	1.46662E-003	6	...........	-327.66
	136	27.4	-6.02102E-001	2.91927E-008	0.00000E+000	-6.02150E-001	1.45878E-003	6	...........	-327.66
	137	27.6	-5.92100E-001	2.94689E-008	0.00000E+000	-5.92150E-001	1.45690E-003	6	...........	-327.66
	138	27.8	-5.82095E-001	2.97498E-008	0.00000E+000	-5.82150E-001	1.45680E-003	6	...........	-327.66
	139	28	-5.72039E-001	3.00972E-008	0.00000E+000	-5.72150E-001	1.46500E-003	6	...........	-327.66
	140	28.2	-5.62119E-001	3.05167E-008	0.00000E+000	-5.62150E-001	1.46600E-003	6	...........	-327.66
	141	28.4	-5.52067E-001	3.09773E-008	0.00000E+000	-5.52150E-001	1.46607E-003	6	...........	-327.66
	142	28.6	-5.42106E-001	3.14898E-008	0.00000E+000	-5.42150E-001	1.45896E-003	6	...........	-327.66
	143	28.8	-5.32048E-001	3.19585E-008	0.00000E+000	-5.32150E-001	1.47497E-003	6	...........	-327.66
	144	29	-5.22126E-001	3.24994E-008	0.00000E+000	-5.22150E-001	1.46333E-003	6	...........	-327.66
	145	29.2	-5.12131E-001	3.30541E-008	0.00000E+000	-5.12150E-001	1.45503E-003	6	...........	-327.66
	146	29.4	-5.02105E-001	3.36826E-008	0.00000E+000	-5.02150E-001	1.45283E-003	6	...........	-327.66
	147	29.6	-4.92041E-001	3.42353E-008	0.00000E+000	-4.92150E-001	1.46497E-003	6	...........	-327.66
	148	29.8	-4.82119E-001	3.47831E-008	0.00000E+000	-4.82150E-001	1.46962E-003	6	...........	-327.66
	149	30	-4.72038E-001	3.54738E-008	0.00000E+000	-4.72150E-001	1.48009E-003	6	...........	-327.66
	150	30.2	-4.62096E-001	3.62092E-008	0.00000E+000	-4.62150E-001	1.46241E-003	6	...........	-327.66
	151	30.4	-4.52014E-001	3.69296E-008	0.00000E+000	-4.52150E-001	1.46675E-003	6	...........	-327.66
	152	30.6	-4.42098E-001	3.74369E-008	0.00000E+000	-4.42150E-001	1.46166E-003	6	...........	-327.66
	153	30.8	-4.32099E-001	3.81534E-008	0.00000E+000	-4.32150E-001	1.45531E-003	6	...........	-327.66
	154	31	-4.22106E-001	3.88159E-008	0.00000E+000	-4.22150E-001	1.45131E-003	6	...........	-327.66
	155	31.2	-4.12034E-001	3.94790E-008	0.00000E+000	-4.12150E-001	1.46910E-003	6	...........	-327.66
	156	31.4	-4.02148E-001	4.01303E-008	0.00000E+000	-4.02150E-001	1.47439E-003	6	...........	-327.66
	157	31.6	-3.92110E-001	4.08439E-008	0.00000E+000	-3.92150E-001	1.46810E-003	6	...........	-327.66
	158	31.8	-3.82135E-001	4.15099E-008	0.00000E+000	-3.82150E-001	1.46313E-003	6	...........	-327.66
	159	32	-3.72056E-001	4.21293E-008	0.00000E+000	-3.72150E-001	1.47587E-003	6	...........	-327.66
	160	32.2	-3.62114E-001	4.27828E-008	0.00000E+000	-3.62150E-001	1.44888E-003	6	...........	-327.66
	161	32.4	-3.52141E-001	4.33780E-008	0.00000E+000	-3.52150E-001	1.45306E-003	6	...........	-327.66
	162	32.6	-3.42153E-001	4.40045E-008	0.00000E+000	-3.42150E-001	1.45061E-003	6	...........	-327.66
	163	32.8	-3.32087E-001	4.45092E-008	0.00000E+000	-3.32150E-001	1.45131E-003	6	...........	-327.66
	164	33	-3.22126E-001	4.50022E-008	0.00000E+000	-3.22150E-001	1.45706E-003	6	...........	-327.66
	165	33.2	-3.12118E-001	4.55520E-008	0.00000E+000	-3.12150E-001	1.44784E-003	6	...........	-327.66
	166	33.4	-3.02141E-001	4.60385E-008	0.00000E+000	-3.02150E-001	1.45223E-003	6	...........	-327.66
	167	33.6	-2.92006E-001	4.65239E-008	0.00000E+000	-2.92150E-001	1.45033E-003	6	...........	-327.66
	168	33.8	-2.82110E-001	4.69147E-008	0.00000E+000	-2.82150E-001	1.45618E-003	6	...........	-327.66
	169	34	-2.72125E-001	4.73578E-008	0.00000E+000	-2.72150E-001	1.45710E-003	6	...........	-327.66
	170	34.2	-2.62116E-001	4.76617E-008	0.00000E+000	-2.62150E-001	1.45154E-003	6	...........	-327.66
	171	34.4	-2.52065E-001	4.80028E-008	0.00000E+000	-2.52150E-001	1.45845E-003	6	...........	-327.66
	172	34.6	-2.42132E-001	4.84099E-008	0.00000E+000	-2.42150E-001	1.45406E-003	6	...........	-327.66
	173	34.8	-2.32137E-001	4.87758E-008	0.00000E+000	-2.32150E-001	1.46198E-003	6	...........	-327.66
	174	35	-2.22135E-001	4.90906E-008	0.00000E+000	-2.22150E-001	1.44761E-003	6	...........	-327.66
	175	35.2	-2.12044E-001	4.92485E-008	0.00000E+000	-2.12150E-001	1.45706E-003	6	...........	-327.66
	176	35.4	-2.02198E-001	4.94938E-008	0.00000E+000	-2.02150E-001	1.44443E-003	6	...........	-327.66
	177	35.6	-1.92159E-001	4.98957E-008	0.00000E+000	-1.92150E-001	1.44813E-003	6	...........	-327.66
	178	35.8	-1.82154E-001	5.01570E-008	0.00000E+000	-1.82150E-001	1.44129E-003	6	...........	-327.66
	179	36	-1.72067E-001	5.02928E-008	0.00000E+000	-1.72150E-001	1.45815E-003	6	...........	-327.66
	180	36.2	-1.62160E-001	5.04099E-008	0.00000E+000	-1.62150E-001	1.46138E-003	6	...........	-327.66
	181	36.4	-1.52166E-001	5.06854E-008	0.00000E+000	-1.52150E-001	1.44516E-003	6	...........	-327.66
	182	36.6	-1.42164E-001	5.10220E-008	0.00000E+000	-1.42150E-001	1.45371E-003	6	...........	-327.66
	183	36.8	-1.32062E-001	5.12073E-008	0.00000E+000	-1.32150E-001	1.44794E-003	6	...........	-327.66
	184	37	-1.22212E-001	5.11224E-008	0.00000E+000	-1.22150E-001	1.44579E-003	6	...........	-327.66
	185	37.2	-1.12113E-001	5.14066E-008	0.00000E+000	-1.12150E-001	1.44796E-003	6	...........	-327.66
	186	37.4	-1.02206E-001	5.17175E-008	0.00000E+000	-1.02150E-001	1.44768E-003	6	...........	-327.66
	187	37.6	-9.20649E-002	5.18731E-008	0.00000E+000	-9.21500E-002	1.44634E-003	6	...........	-327.66
	188	37.8	-8.21754E-002	5.20081E-008	0.00000E+000	-8.21500E-002	1.45278E-003	6	...........	-327.66
	189	38	-7.21583E-002	5.19294E-008	0.00000E+000	-7.21500E-002	1.45818E-003	6	...........	-327.66
	190	38.2	-6.21418E-002	5.21650E-008	0.00000E+000	-6.21500E-002	1.45323E-003	6	...........	-327.66
	191	38.4	-5.20428E-002	5.23434E-008	0.00000E+000	-5.21500E-002	1.45296E-003	6	...........	-327.66
	192	38.6	-4.21495E-002	5.24383E-008	0.00000E+000	-4.21500E-002	1.46040E-003	6	...........	-327.66
	193	38.8	-3.21369E-002	5.24643E-008	0.00000E+000	-3.21500E-002	1.44733E-003	6	...........	-327.66
	194	39	-2.21833E-002	5.25931E-008	0.00000E+000	-2.21500E-002	1.44616E-003	6	...........	-327.66
	195	39.2	-1.20523E-002	5.26856E-008	0.00000E+000	-1.21500E-002	1.45643E-003	6	...........	-327.66
	196	39.4	-2.18401E-003	5.27498E-008	0.00000E+000	-2.15001E-003	1.46823E-003	6	...........	-327.66
	197	39.6	7.88320E-003	5.29299E-008	0.00000E+000	7.84999E-003	1.45933E-003	6	...........	-327.66
	198	39.8	1.79182E-002	5.30466E-008	0.00000E+000	1.78500E-002	1.44526E-003	6	...........	-327.66
	199	40	2.79231E-002	5.31365E-008	0.00000E+000	2.78500E-002	1.44543E-003	6	...........	-327.66
	200	40.2	3.78709E-002	5.31976E-008	0.00000E+000	3.78500E-002	1.44713E-003	6	...........	-327.66
	201	40.4	4.78894E-002	5.33851E-008	0.00000E+000	4.78500E-002	1.44641E-003	6	...........	-327.66
	202	40.6	5.78556E-002	5.34810E-008	0.00000E+000	5.78500E-002	1.44659E-003	6	...........	-327.66
	203	40.8	6.79177E-002	5.35971E-008	0.00000E+000	6.78500E-002	1.45923E-003	6	...........	-327.66
	204	41	7.78600E-002	5.37587E-008	0.00000E+000	7.78500E-002	1.46190E-003	6	...........	-327.66
	205	41.2	8.78702E-002	5.39449E-008	0.00000E+000	8.78500E-002	1.46368E-003	6	...........	-327.66
	206	41.4	9.78889E-002	5.41850E-008	0.00000E+000	9.78500E-002	1.45698E-003	6	...........	-327.66
	207	41.6	1.07928E-001	5.42990E-008	0.00000E+000	1.07850E-001	1.45935E-003	6	...........	-327.66
	208	41.8	1.17894E-001	5.44970E-008	0.00000E+000	1.17850E-001	1.46316E-003	6	...........	-327.66
	209	42	1.27892E-001	5.46602E-008	0.00000E+000	1.27850E-001	1.45194E-003	6	...........	-327.66
	210	42.2	1.37882E-001	5.48558E-008	0.00000E+000	1.37850E-001	1.45059E-003	6	...........	-327.66
	211	42.4	1.47938E-001	5.50038E-008	0.00000E+000	1.47850E-001	1.45480E-003	6	...........	-327.66
	212	42.6	1.57885E-001	5.51562E-008	0.00000E+000	1.57850E-001	1.46495E-003	6	...........	-327.66
	213	42.8	1.67807E-001	5.53730E-008	0.00000E+000	1.67850E-001	1.47218E-003	6	...........	-327.66
	214	43	1.77906E-001	5.54932E-008	0.00000E+000	1.77850E-001	1.47205E-003	6	...........	-327.66
	215	43.2	1.87938E-001	5.56278E-008	0.00000E+000	1.87850E-001	1.46543E-003	6	...........	-327.66
	216	43.4	1.97919E-001	5.56582E-008	0.00000E+000	1.97850E-001	1.45249E-003	6	...........	-327.66
	217	43.6	2.07839E-001	5.58137E-008	0.00000E+000	2.07850E-001	1.45061E-003	6	...........	-327.66
	218	43.8	2.17896E-001	5.59275E-008	0.00000E+000	2.17850E-001	1.45188E-003	6	...........	-327.66
	219	44	2.27889E-001	5.59834E-008	0.00000E+000	2.27850E-001	1.46903E-003	6	...........	-327.66
	220	44.2	2.37840E-001	5.60623E-008	0.00000E+000	2.37850E-001	1.45623E-003	6	...........	-327.66
	221	44.4	2.47876E-001	5.61996E-008	0.00000E+000	2.47850E-001	1.46463E-003	6	...........	-327.66
	222	44.6	2.57840E-001	5.63444E-008	0.00000E+000	2.57850E-001	1.45981E-003	6	...........	-327.66
	223	44.8	2.67873E-001	5.64546E-008	0.00000E+000	2.67850E-001	1.46508E-003	6	...........	-327.66
	224	45	2.77865E-001	5.65920E-008	0.00000E+000	2.77850E-001	1.45835E-003	6	...........	-327.66
	225	45.2	2.87802E-001	5.67311E-008	0.00000E+000	2.87850E-001	1.45931E-003	6	...........	-327.66
	226	45.4	2.97836E-001	5.69496E-008	0.00000E+000	2.97850E-001	1.45768E-003	6	...........	-327.66
	227	45.6	3.07873E-001	5.70456E-008	0.00000E+000	3.07850E-001	1.46703E-003	6	...........	-327.66
	228	45.8	3.17833E-001	5.72055E-008	0.00000E+000	3.17850E-001	1.45334E-003	6	...........	-327.66
	229	46	3.27849E-001	5.74776E-008	0.00000E+000	3.27850E-001	1.45848E-003	6	...........	-327.66
	230	46.2	3.37843E-001	5.77019E-008	0.00000E+000	3.37850E-001	1.45975E-003	6	...........	-327.66
	231	46.4	3.47876E-001	5.79891E-008	0.00000E+000	3.47850E-001	1.46198E-003	6	...........	-327.66
	232	46.6	3.57874E-001	5.82151E-008	0.00000E+000	3.57850E-001	1.45988E-003	6	...........	-327.66
	233	46.8	3.67808E-001	5.85376E-008	0.00000E+000	3.67850E-001	1.45451E-003	6	...........	-327.66
	234	47	3.77871E-001	5.88208E-008	0.00000E+000	3.77850E-001	1.45138E-003	6	...........	-327.66
	235	47.2	3.87868E-001	5.91617E-008	0.00000E+000	3.87850E-001	1.45496E-003	6	...........	-327.66
	236	47.4	3.97833E-001	5.94727E-008	0.00000E+000	3.97850E-001	1.46150E-003	6	...........	-327.66
	237	47.6	4.07829E-001	5.98664E-008	0.00000E+000	4.07850E-001	1.46210E-003	6	...........	-327.66
	238	47.8	4.17786E-001	6.02843E-008	0.00000E+000	4.17850E-001	1.46455E-003	6	...........	-327.66
	239	48	4.27853E-001	6.06739E-008	0.00000E+000	4.27850E-001	1.45168E-003	6	...........	-327.66
	240	48.2	4.37817E-001	6.11403E-008	0.00000E+000	4.37850E-001	1.44523E-003	6	...........	-327.66
	241	48.4	4.47813E-001	6.16023E-008	0.00000E+000	4.47850E-001	1.45261E-003	6	...........	-327.66
	242	48.6	4.57822E-001	6.20857E-008	0.00000E+000	4.57850E-001	1.44366E-003	6	...........	-327.66
	243	48.8	4.67850E-001	6.25550E-008	0.00000E+000	4.67850E-001	1.45450E-003	6	...........	-327.66
	244	49	4.77831E-001	6.30503E-008	0.00000E+000	4.77850E-001	1.45730E-003	6	...........	-327.66
	245	49.2	4.87781E-001	6.35811E-008	0.00000E+000	4.87850E-001	1.45533E-003	6	...........	-327.66
	246	49.4	4.97774E-001	6.40843E-008	0.00000E+000	4.97850E-001	1.46220E-003	6	...........	-327.66
	247	49.6	5.07893E-001	6.46404E-008	0.00000E+000	5.07850E-001	1.45224E-003	6	...........	-327.66
	248	49.8	5.17784E-001	6.51951E-008	0.00000E+000	5.17850E-001	1.45736E-003	6	...........	-327.66
	249	50	5.27846E-001	6.58519E-008	0.00000E+000	5.27850E-001	1.44342E-003	6	...........	-327.66
	250	50.2	5.37781E-001	6.64630E-008	0.00000E+000	5.37850E-001	1.45081E-003	6	...........	-327.66
	251	50.4	5.47875E-001	6.72090E-008	0.00000E+000	5.47850E-001	1.45423E-003	6	...........	-327.66
	252	50.6	5.57814E-001	6.78619E-008	0.00000E+000	5.57850E-001	1.45276E-003	6	...........	-327.66
	253	50.8	5.67780E-001	6.86692E-008	0.00000E+000	5.67850E-001	1.45556E-003	6	...........	-327.66
	254	51	5.77732E-001	6.95342E-008	0.00000E+000	5.77850E-001	1.45533E-003	6	...........	-327.66
	255	51.2	5.87886E-001	7.04844E-008	0.00000E+000	5.87850E-001	1.45461E-003	6	...........	-327.66
	256	51.4	5.97788E-001	7.14927E-008	0.00000E+000	5.97850E-001	1.44664E-003	6	...........	-327.66
CURVE2	TABLE
	Pt	T	Vf	Im	Vu	Sig	Ach	IERange	Over	Temp
	#	s	V vs. Ref.	A	V	V	V	#	bits	deg C
	257	51.6	5.89982E-001	1.60023E-009	0.00000E+000	5.90000E-001	1.45591E-003	6	...........	-327.66
	258	51.8	5.79992E-001	-1.33513E-008	0.00000E+000	5.80000E-001	1.45068E-003	6	...........	-327.66
	259	52	5.69988E-001	-1.80484E-008	0.00000E+000	5.70000E-001	1.44763E-003	6	...........	-327.66
	260	52.2	5.59969E-001	-2.13513E-008	0.00000E+000	5.60000E-001	1.44751E-003	6	...........	-327.66
	261	52.4	5.49993E-001	-2.37568E-008	0.00000E+000	5.50000E-001	1.45616E-003	6	...........	-327.66
	262	52.6	5.39996E-001	-2.56317E-008	0.00000E+000	5.40000E-001	1.45004E-003	6	...........	-327.66
	263	52.8	5.30006E-001	-2.70356E-008	0.00000E+000	5.30000E-001	1.45114E-003	6	...........	-327.66
	264	53	5.19976E-001	-2.82180E-008	0.00000E+000	5.20000E-001	1.45928E-003	6	...........	-327.66
	265	53.2	5.09972E-001	-2.91865E-008	0.00000E+000	5.10000E-001	1.45601E-003	6	...........	-327.66
	266	53.4	5.00008E-001	-3.00255E-008	0.00000E+000	5.00000E-001	1.45586E-003	6	...........	-327.66
	267	53.6	4.89973E-001	-3.07299E-008	0.00000E+000	4.90000E-001	1.44503E-003	6	...........	-327.66
	268	53.8	4.79949E-001	-3.14102E-008	0.00000E+000	4.80000E-001	1.44536E-003	6	...........	-327.66
	269	54	4.69974E-001	-3.18899E-008	0.00000E+000	4.70000E-001	1.45154E-003	6	...........	-327.66
	270	54.2	4.59995E-001	-3.24286E-008	0.00000E+000	4.60000E-001	1.46056E-003	6	...........	-327.66
	271	54.4	4.49990E-001	-3.27997E-008	0.00000E+000	4.50000E-001	1.45340E-003	6	...........	-327.66
	272	54.6	4.39942E-001	-3.32254E-008	0.00000E+000	4.40000E-001	1.45189E-003	6	...........	-327.66
	273	54.8	4.29992E-001	-3.35660E-008	0.00000E+000	4.30000E-001	1.45048E-003	6	...........	-327.66
	274	55	4.20041E-001	-3.39113E-008	0.00000E+000	4.20000E-001	1.45268E-003	6	...........	-327.66
	275	55.2	4.09983E-001	-3.41842E-008	0.00000E+000	4.10000E-001	1.45144E-003	6	...........	-327.66
	276	55.4	3.99987E-001	-3.45241E-008	0.00000E+000	4.00000E-001	1.44464E-003	6	...........	-327.66
	277	55.6	3.89993E-001	-3.48054E-008	0.00000E+000	3.90000E-001	1.45450E-003	6	...........	-327.66
	278	55.8	3.80001E-001	-3.50528E-008	0.00000E+000	3.80000E-001	1.44979E-003	6	...........	-327.66
	279	56	3.70030E-001	-3.52453E-008	0.00000E+000	3.70000E-001	1.46170E-003	6	...........	-327.66
	280	56.2	3.59981E-001	-3.55307E-008	0.00000E+000	3.60000E-001	1.46138E-003	6	...........	-327.66
	281	56.4	3.50026E-001	-3.57715E-008	0.00000E+000	3.50000E-001	1.45390E-003	6	...........	-327.66
	282	56.6	3.40013E-001	-3.59931E-008	0.00000E+000	3.40000E-001	1.46333E-003	6	...........	-327.66
	283	56.8	3.30019E-001	-3.61328E-008	0.00000E+000	3.30000E-001	1.45021E-003	6	...........	-327.66
	284	57	3.19994E-001	-3.64069E-008	0.00000E+000	3.20000E-001	1.45218E-003	6	...........	-327.66
	285	57.2	3.09997E-001	-3.66275E-008	0.00000E+000	3.10000E-001	1.45361E-003	6	...........	-327.66
	286	57.4	3.00002E-001	-3.68485E-008	0.00000E+000	3.00000E-001	1.45908E-003	6	...........	-327.66
	287	57.6	2.90014E-001	-3.69228E-008	0.00000E+000	2.90000E-001	1.45755E-003	6	...........	-327.66
	288	57.8	2.79986E-001	-3.71499E-008	0.00000E+000	2.80000E-001	1.46038E-003	6	...........	-327.66
	289	58	2.70097E-001	-3.72940E-008	0.00000E+000	2.70000E-001	1.45940E-003	6	...........	-327.66
	290	58.2	2.60009E-001	-3.75450E-008	0.00000E+000	2.60000E-001	1.46276E-003	6	...........	-327.66
	291	58.4	2.50059E-001	-3.75878E-008	0.00000E+000	2.50000E-001	1.46432E-003	6	...........	-327.66
	292	58.6	2.40008E-001	-3.78383E-008	0.00000E+000	2.40000E-001	1.45558E-003	6	...........	-327.66
	293	58.8	2.30004E-001	-3.79975E-008	0.00000E+000	2.30000E-001	1.45923E-003	6	...........	-327.66
	294	59	2.20008E-001	-3.81788E-008	0.00000E+000	2.20000E-001	1.45788E-003	6	...........	-327.66
	295	59.2	2.10009E-001	-3.83333E-008	0.00000E+000	2.10000E-001	1.45728E-003	6	...........	-327.66
	296	59.4	2.00003E-001	-3.85380E-008	0.00000E+000	2.00000E-001	1.47577E-003	6	...........	-327.66
	297	59.6	1.90056E-001	-3.86994E-008	0.00000E+000	1.90000E-001	1.46425E-003	6	...........	-327.66
	298	59.8	1.80020E-001	-3.89052E-008	0.00000E+000	1.80000E-001	1.46243E-003	6	...........	-327.66
	299	60	1.70115E-001	-3.90508E-008	0.00000E+000	1.70000E-001	1.46512E-003	6	...........	-327.66
	300	60.2	1.60015E-001	-3.92572E-008	0.00000E+000	1.60000E-001	1.44983E-003	6	...........	-327.66
	301	60.4	1.50035E-001	-3.94002E-008	0.00000E+000	1.50000E-001	1.44998E-003	6	...........	-327.66
	302	60.6	1.40099E-001	-3.96201E-008	0.00000E+000	1.40000E-001	1.46121E-003	6	...........	-327.66
	303	60.8	1.30060E-001	-3.97382E-008	0.00000E+000	1.30000E-001	1.45084E-003	6	...........	-327.66
	304	61	1.20012E-001	-4.00208E-008	0.00000E+000	1.20000E-001	1.45861E-003	6	...........	-327.66
	305	61.2	1.10027E-001	-4.01525E-008	0.00000E+000	1.10000E-001	1.45578E-003	6	...........	-327.66
	306	61.4	1.00013E-001	-4.04133E-008	0.00000E+000	1.00000E-001	1.46952E-003	6	...........	-327.66
	307	61.6	9.01311E-002	-4.05013E-008	0.00000E+000	9.00000E-002	1.45683E-003	6	...........	-327.66
	308	61.8	7.99989E-002	-4.07059E-008	0.00000E+000	8.00000E-002	1.44014E-003	6	...........	-327.66
	309	62	7.00301E-002	-4.09468E-008	0.00000E+000	7.00000E-002	1.45485E-003	6	...........	-327.66
	310	62.2	6.00475E-002	-4.11466E-008	0.00000E+000	6.00000E-002	1.45608E-003	6	...........	-327.66
	311	62.4	5.00383E-002	-4.13295E-008	0.00000E+000	5.00000E-002	1.46818E-003	6	...........	-327.66
	312	62.6	4.00089E-002	-4.15453E-008	0.00000E+000	4.00000E-002	1.46143E-003	6	...........	-327.66
	313	62.8	3.00132E-002	-4.18200E-008	0.00000E+000	3.00000E-002	1.46296E-003	6	...........	-327.66
	314	63	2.00122E-002	-4.20413E-008	0.00000E+000	2.00000E-002	1.45271E-003	6	...........	-327.66
	315	63.2	1.00548E-002	-4.21503E-008	0.00000E+000	9.99999E-003	1.44571E-003	6	...........	-327.66
	316	63.4	-3.85982E-006	-4.24587E-008	0.00000E+000	-1.49012E-008	1.45631E-003	6	...........	-327.66
	317	63.6	-9.94786E-003	-4.25939E-008	0.00000E+000	-1.00000E-002	1.44696E-003	6	...........	-327.66
	318	63.8	-1.99490E-002	-4.28764E-008	0.00000E+000	-2.00000E-002	1.46068E-003	6	...........	-327.66
	319	64	-2.99561E-002	-4.30099E-008	0.00000E+000	-3.00000E-002	1.44598E-003	6	...........	-327.66
	320	64.2	-3.99376E-002	-4.33517E-008	0.00000E+000	-4.00000E-002	1.45771E-003	6	...........	-327.66
	321	64.4	-4.99965E-002	-4.35651E-008	0.00000E+000	-5.00000E-002	1.44976E-003	6	...........	-327.66
	322	64.6	-5.99797E-002	-4.38772E-008	0.00000E+000	-6.00000E-002	1.46045E-003	6	...........	-327.66
	323	64.8	-6.99352E-002	-4.40027E-008	0.00000E+000	-7.00000E-002	1.45036E-003	6	...........	-327.66
	324	65	-8.00015E-002	-4.43099E-008	0.00000E+000	-8.00000E-002	1.44429E-003	6	...........	-327.66
	325	65.2	-8.99485E-002	-4.45478E-008	0.00000E+000	-9.00000E-002	1.44573E-003	6	...........	-327.66
	326	65.4	-9.99772E-002	-4.48671E-008	0.00000E+000	-1.00000E-001	1.45455E-003	6	...........	-327.66
	327	65.6	-1.09956E-001	-4.51016E-008	0.00000E+000	-1.10000E-001	1.45920E-003	6	...........	-327.66
	328	65.8	-1.19975E-001	-4.53352E-008	0.00000E+000	-1.20000E-001	1.45298E-003	6	...........	-327.66
	329	66	-1.29998E-001	-4.56218E-008	0.00000E+000	-1.30000E-001	1.46273E-003	6	...........	-327.66
	330	66.2	-1.39951E-001	-4.59552E-008	0.00000E+000	-1.40000E-001	1.46845E-003	6	...........	-327.66
	331	66.4	-1.49990E-001	-4.62338E-008	0.00000E+000	-1.50000E-001	1.44403E-003	6	...........	-327.66
	332	66.6	-1.60000E-001	-4.65469E-008	0.00000E+000	-1.60000E-001	1.45039E-003	6	...........	-327.66
	333	66.8	-1.69960E-001	-4.68535E-008	0.00000E+000	-1.70000E-001	1.44673E-003	6	...........	-327.66
	334	67	-1.79991E-001	-4.72453E-008	0.00000E+000	-1.80000E-001	1.45621E-003	6	...........	-327.66
	335	67.2	-1.89842E-001	-4.75012E-008	0.00000E+000	-1.90000E-001	1.45169E-003	6	...........	-327.66
	336	67.4	-2.00005E-001	-4.79457E-008	0.00000E+000	-2.00000E-001	1.45756E-003	6	...........	-327.66
	337	67.6	-2.09972E-001	-4.82616E-008	0.00000E+000	-2.10000E-001	1.45286E-003	6	...........	-327.66
	338	67.8	-2.19893E-001	-4.86789E-008	0.00000E+000	-2.20000E-001	1.45476E-003	6	...........	-327.66
	339	68	-2.29958E-001	-4.90411E-008	0.00000E+000	-2.30000E-001	1.45119E-003	6	...........	-327.66
	340	68.2	-2.39994E-001	-4.95348E-008	0.00000E+000	-2.40000E-001	1.44906E-003	6	...........	-327.66
	341	68.4	-2.49969E-001	-5.00035E-008	0.00000E+000	-2.50000E-001	1.46553E-003	6	...........	-327.66
	342	68.6	-2.59979E-001	-5.04995E-008	0.00000E+000	-2.60000E-001	1.44628E-003	6	...........	-327.66
	343	68.8	-2.69912E-001	-5.09647E-008	0.00000E+000	-2.70000E-001	1.46046E-003	6	...........	-327.66
	344	69	-2.80006E-001	-5.15213E-008	0.00000E+000	-2.80000E-001	1.45700E-003	6	...........	-327.66
	345	69.2	-2.89950E-001	-5.20736E-008	0.00000E+000	-2.90000E-001	1.46948E-003	6	...........	-327.66
	346	69.4	-2.99966E-001	-5.26711E-008	0.00000E+000	-3.00000E-001	1.46311E-003	6	...........	-327.66
	347	69.6	-3.09964E-001	-5.32125E-008	0.00000E+000	-3.10000E-001	1.45184E-003	6	...........	-327.66
	348	69.8	-3.19993E-001	-5.38980E-008	0.00000E+000	-3.20000E-001	1.45915E-003	6	...........	-327.66
	349	70	-3.29984E-001	-5.45382E-008	0.00000E+000	-3.30000E-001	1.45763E-003	6	...........	-327.66
	350	70.2	-3.39987E-001	-5.52595E-008	0.00000E+000	-3.40000E-001	1.45948E-003	6	...........	-327.66
	351	70.4	-3.49950E-001	-5.58171E-008	0.00000E+000	-3.50000E-001	1.47160E-003	6	...........	-327.66
	352	70.6	-3.59987E-001	-5.65069E-008	0.00000E+000	-3.60000E-001	1.47449E-003	6	...........	-327.66
	353	70.8	-3.69852E-001	-5.70994E-008	0.00000E+000	-3.70000E-001	1.46382E-003	6	...........	-327.66
	354	71	-3.79972E-001	-5.77781E-008	0.00000E+000	-3.80000E-001	1.47113E-003	6	...........	-327.66
	355	71.2	-3.89929E-001	-5.83469E-008	0.00000E+000	-3.90000E-001	1.46997E-003	6	...........	-327.66
	356	71.4	-3.99951E-001	-5.89642E-008	0.00000E+000	-4.00000E-001	1.45886E-003	6	...........	-327.66
	357	71.6	-4.09961E-001	-5.95550E-008	0.00000E+000	-4.10000E-001	1.46757E-003	6	...........	-327.66
	358	71.8	-4.19952E-001	-6.01191E-008	0.00000E+000	-4.20000E-001	1.46050E-003	6	...........	-327.66
	359	72	-4.29921E-001	-6.06516E-008	0.00000E+000	-4.30000E-001	1.46828E-003	6	...........	-327.66
	360	72.2	-4.39981E-001	-6.12244E-008	0.00000E+000	-4.40000E-001	1.47844E-003	6	...........	-327.66
	361	72.4	-4.49882E-001	-6.17984E-008	0.00000E+000	-4.50000E-001	1.47635E-003	6	...........	-327.66
	362	72.6	-4.59945E-001	-6.24513E-008	0.00000E+000	-4.60000E-001	1.46905E-003	6	...........	-327.66
	363	72.8	-4.69794E-001	-6.30125E-008	0.00000E+000	-4.70000E-001	1.47477E-003	6	...........	-327.66
	364	73	-4.79917E-001	-6.36559E-008	0.00000E+000	-4.80000E-001	1.46056E-003	6	...........	-327.66
	365	73.2	-4.89917E-001	-6.41726E-008	0.00000E+000	-4.90000E-001	1.45985E-003	6	...........	-327.66
	366	73.4	-4.99850E-001	-6.47829E-008	0.00000E+000	-5.00000E-001	1.47874E-003	6	...........	-327.66
	367	73.6	-5.09879E-001	-6.52822E-008	0.00000E+000	-5.10000E-001	1.48169E-003	6	...........	-327.66
	368	73.8	-5.19974E-001	-6.59552E-008	0.00000E+000	-5.20000E-001	1.47919E-003	6	...........	-327.66
	369	74	-5.29899E-001	-6.64665E-008	0.00000E+000	-5.30000E-001	1.48297E-003	6	...........	-327.66
	370	74.2	-5.39938E-001	-6.70778E-008	0.00000E+000	-5.40000E-001	1.47359E-003	6	...........	-327.66
	371	74.4	-5.49802E-001	-6.75470E-008	0.00000E+000	-5.50000E-001	1.47490E-003	6	...........	-327.66
	372	74.6	-5.59950E-001	-6.80919E-008	0.00000E+000	-5.60000E-001	1.46823E-003	6	...........	-327.66
	373	74.8	-5.69829E-001	-6.86646E-008	0.00000E+000	-5.70000E-001	1.47559E-003	6	...........	-327.66
	374	75	-5.79837E-001	-6.91161E-008	0.00000E+000	-5.80000E-001	1.48302E-003	6	...........	-327.66
	375	75.2	-5.89890E-001	-6.95330E-008	0.00000E+000	-5.90000E-001	1.47527E-003	6	...........	-327.66
	376	75.4	-5.99908E-001	-6.99842E-008	0.00000E+000	-6.00000E-001	1.47934E-003	6	...........	-327.66
	377	75.6	-6.09902E-001	-7.04740E-008	0.00000E+000	-6.10000E-001	1.47547E-003	6	...........	-327.66
	378	75.8	-6.19949E-001	-7.08006E-008	0.00000E+000	-6.20000E-001	1.47650E-003	6	...........	-327.66
	379	76	-6.29820E-001	-7.09854E-008	0.00000E+000	-6.30000E-001	1.46950E-003	6	...........	-327.66
	380	76.2	-6.39942E-001	-7.13148E-008	0.00000E+000	-6.40000E-001	1.46286E-003	6	...........	-327.66
[...]
	700	140.2	-8.39905E-001	-3.47976E-008	0.00000E+000	-8.40000E-001	1.46296E-003	6	...........	-327.66
	701	140.4	-8.49842E-001	-3.26919E-008	0.00000E+000	-8.50000E-001	1.46407E-003	6	...........	-327.66
	702	140.6	-8.59825E-001	-3.11073E-008	0.00000E+000	-8.60000E-001	1.46206E-003	6	...........	-327.66
	703	140.8	-8.69885E-001	-2.93768E-008	0.00000E+000	-8.70000E-001	1.44938E-003	6	...........	-327.66
	704	141	-8.79929E-001	-2.79105E-008	0.00000E+000	-8.80000E-001	1.45536E-003	6	...........	-327.66
	705	141.2	-8.89900E-001	-2.66884E-008	0.00000E+000	-8.90000E-001	1.45485E-003	6	...........	-327.66
	706	141.4	-8.99959E-001	-2.55815E-008	0.00000E+000	-9.00000E-001	1.45291E-003	6	...........	-327.66
	707	141.6	-8.89963E-001	-2.15987E-008	0.00000E+000	-8.90000E-001	1.45576E-003	6	...........	-327.66
	708	141.8	-8.79983E-001	-1.94806E-008	0.00000E+000	-8.80000E-001	1.45766E-003	6	...........	-327.66
	709	142	-8.69975E-001	-1.79353E-008	0.00000E+000	-8.70000E-001	1.44879E-003	6	...........	-327.66
	710	142.2	-8.59878E-001	-1.65317E-008	0.00000E+000	-8.60000E-001	1.45853E-003	6	...........	-327.66
	711	142.4	-8.49919E-001	-1.51596E-008	0.00000E+000	-8.50000E-001	1.45490E-003	6	...........	-327.66
	712	142.6	-8.40001E-001	-1.38520E-008	0.00000E+000	-8.40000E-001	1.45073E-003	6	...........	-327.66
	713	142.8	-8.29798E-001	-1.24638E-008	0.00000E+000	-8.30000E-001	1.45590E-003	6	...........	-327.66
	714	143	-8.19983E-001	-1.10944E-008	0.00000E+000	-8.20000E-001	1.45261E-003	6	...........	-327.66
	715	143.2	-8.09894E-001	-9.48354E-009	0.00000E+000	-8.10000E-001	1.45505E-003	6	...........	-327.66
	716	143.4	-7.99953E-001	-7.79888E-009	0.00000E+000	-8.00000E-001	1.44312E-003	6	...........	-327.66
	717	143.6	-7.89930E-001	-5.79352E-009	0.00000E+000	-7.90000E-001	1.45511E-003	6	...........	-327.66
	718	143.8	-7.79949E-001	-3.61365E-009	0.00000E+000	-7.80000E-001	1.46478E-003	6	...........	-327.66
	719	144	-7.69951E-001	-1.01792E-009	0.00000E+000	-7.70000E-001	1.45961E-003	6	...........	-327.66
	720	144.2	-7.59956E-001	1.93279E-009	0.00000E+000	-7.60000E-001	1.45511E-003	6	...........	-327.66
	721	144.4	-7.49905E-001	5.22394E-009	0.00000E+000	-7.50000E-001	1.45423E-003	6	...........	-327.66
	722	144.6	-7.39987E-001	8.77197E-009	0.00000E+000	-7.40000E-001	1.45458E-003	6	...........	-327.66
	723	144.8	-7.29919E-001	1.27710E-008	0.00000E+000	-7.30000E-001	1.45284E-003	6	...........	-327.66
	724	145	-7.19988E-001	1.68706E-008	0.00000E+000	-7.20000E-001	1.43857E-003	6	...........	-327.66
	725	145.2	-7.09899E-001	2.08427E-008	0.00000E+000	-7.10000E-001	1.44864E-003	6	...........	-327.66
	726	145.4	-6.99950E-001	2.41963E-008	0.00000E+000	-7.00000E-001	1.45578E-003	6	...........	-327.66
	727	145.6	-6.89955E-001	2.68796E-008	0.00000E+000	-6.90000E-001	1.45908E-003	6	...........	-327.66
	728	145.8	-6.79917E-001	2.84888E-008	0.00000E+000	-6.80000E-001	1.45019E-003	6	...........	-327.66
	729	146	-6.69868E-001	2.91202E-008	0.00000E+000	-6.70000E-001	1.45641E-003	6	...........	-327.66
	730	146.2	-6.59967E-001	2.89374E-008	0.00000E+000	-6.60000E-001	1.44961E-003	6	...........	-327.66
	731	146.4	-6.49924E-001	2.87134E-008	0.00000E+000	-6.50000E-001	1.44566E-003	6	...........	-327.66
	732	146.6	-6.39994E-001	2.83667E-008	0.00000E+000	-6.40000E-001	1.45269E-003	6	...........	-327.66
	733	146.8	-6.29907E-001	2.82444E-008	0.00000E+000	-6.30000E-001	1.44231E-003	6	...........	-327.66
	734	147	-6.19985E-001	2.80761E-008	0.00000E+000	-6.20000E-001	1.45968E-003	6	...........	-327.66
	735	147.2	-6.09998E-001	2.80446E-008	0.00000E+000	-6.10000E-001	1.45401E-003	6	...........	-327.66
	736	147.4	-5.99998E-001	2.81383E-008	0.00000E+000	-6.00000E-001	1.45821E-003	6	...........	-327.66
	737	147.6	-5.89970E-001	2.83386E-008	0.00000E+000	-5.90000E-001	1.46296E-003	6	...........	-327.66
	738	147.8	-5.79935E-001	2.85243E-008	0.00000E+000	-5.80000E-001	1.44579E-003	6	...........	-327.66
	739	148	-5.69980E-001	2.87829E-008	0.00000E+000	-5.70000E-001	1.44811E-003	6	...........	-327.66
	740	148.2	-5.60019E-001	2.90794E-008	0.00000E+000	-5.60000E-001	1.44666E-003	6	...........	-327.66
	741	148.4	-5.49889E-001	2.94485E-008	0.00000E+000	-5.50000E-001	1.45204E-003	6	...........	-327.66
	742	148.6	-5.40004E-001	2.97782E-008	0.00000E+000	-5.40000E-001	1.45453E-003	6	...........	-327.66
	743	148.8	-5.29981E-001	3.02230E-008	0.00000E+000	-5.30000E-001	1.46193E-003	6	...........	-327.66
	744	149	-5.20035E-001	3.05817E-008	0.00000E+000	-5.20000E-001	1.46340E-003	6	...........	-327.66
	745	149.2	-5.09965E-001	3.11049E-008	0.00000E+000	-5.10000E-001	1.45555E-003	6	...........	-327.66
	746	149.4	-4.99910E-001	3.15420E-008	0.00000E+000	-5.00000E-001	1.45106E-003	6	...........	-327.66
	747	149.6	-4.89993E-001	3.20717E-008	0.00000E+000	-4.90000E-001	1.45501E-003	6	...........	-327.66
	748	149.8	-4.79991E-001	3.25032E-008	0.00000E+000	-4.80000E-001	1.45291E-003	6	...........	-327.66
	749	150	-4.69857E-001	3.31124E-008	0.00000E+000	-4.70000E-001	1.46168E-003	6	...........	-327.66
	750	150.2	-4.59998E-001	3.36295E-008	0.00000E+000	-4.60000E-001	1.45701E-003	6	...........	-327.66
	751	150.4	-4.49959E-001	3.43509E-008	0.00000E+000	-4.50000E-001	1.46412E-003	6	...........	-327.66
	752	150.6	-4.40010E-001	3.49201E-008	0.00000E+000	-4.40000E-001	1.45918E-003	6	...........	-327.66
	753	150.8	-4.29999E-001	3.54677E-008	0.00000E+000	-4.30000E-001	1.46050E-003	6	...........	-327.66
	754	151	-4.20001E-001	3.60658E-008	0.00000E+000	-4.20000E-001	1.45304E-003	6	...........	-327.66
	755	151.2	-4.10006E-001	3.68086E-008	0.00000E+000	-4.10000E-001	1.46035E-003	6	...........	-327.66
	756	151.4	-3.99993E-001	3.74254E-008	0.00000E+000	-4.00000E-001	1.45078E-003	6	...........	-327.66
	757	151.6	-3.89942E-001	3.80643E-008	0.00000E+000	-3.90000E-001	1.46206E-003	6	...........	-327.66
	758	151.8	-3.80010E-001	3.86380E-008	0.00000E+000	-3.80000E-001	1.46588E-003	6	...........	-327.66
	759	152	-3.69923E-001	3.93445E-008	0.00000E+000	-3.70000E-001	1.46758E-003	6	...........	-327.66
	760	152.2	-3.60017E-001	3.99203E-008	0.00000E+000	-3.60000E-001	1.46925E-003	6	...........	-327.66
	761	152.4	-3.50001E-001	4.06479E-008	0.00000E+000	-3.50000E-001	1.46266E-003	6	...........	-327.66
	762	152.6	-3.40014E-001	4.11210E-008	0.00000E+000	-3.40000E-001	1.44908E-003	6	...........	-327.66
	763	152.8	-3.30016E-001	4.17908E-008	0.00000E+000	-3.30000E-001	1.44409E-003	6	...........	-327.66
	764	153	-3.20020E-001	4.23255E-008	0.00000E+000	-3.20000E-001	1.45293E-003	6	...........	-327.66
	765	153.2	-3.10001E-001	4.29771E-008	0.00000E+000	-3.10000E-001	1.45038E-003	6	...........	-327.66
	766	153.4	-3.00005E-001	4.33805E-008	0.00000E+000	-3.00000E-001	1.46358E-003	6	...........	-327.66
	767	153.6	-2.89980E-001	4.39386E-008	0.00000E+000	-2.90000E-001	1.45671E-003	6	...........	-327.66
	768	153.8	-2.80027E-001	4.44184E-008	0.00000E+000	-2.80000E-001	1.45378E-003	6	...........	-327.66
	769	154	-2.69960E-001	4.49505E-008	0.00000E+000	-2.70000E-001	1.46552E-003	6	...........	-327.66
	770	154.2	-2.60009E-001	4.53146E-008	0.00000E+000	-2.60000E-001	1.45153E-003	6	...........	-327.66
	771	154.4	-2.50016E-001	4.57543E-008	0.00000E+000	-2.50000E-001	1.45565E-003	6	...........	-327.66
	772	154.6	-2.40030E-001	4.62305E-008	0.00000E+000	-2.40000E-001	1.45575E-003	6	...........	-327.66
	773	154.8	-2.30003E-001	4.66784E-008	0.00000E+000	-2.30000E-001	1.45228E-003	6	...........	-327.66
	774	155	-2.19939E-001	4.69753E-008	0.00000E+000	-2.20000E-001	1.46176E-003	6	...........	-327.66
	775	155.2	-2.10006E-001	4.73759E-008	0.00000E+000	-2.10000E-001	1.46256E-003	6	...........	-327.66
	776	155.4	-2.00060E-001	4.76191E-008	0.00000E+000	-2.00000E-001	1.46103E-003	6	...........	-327.66
	777	155.6	-1.89932E-001	4.80266E-008	0.00000E+000	-1.90000E-001	1.45511E-003	6	...........	-327.66
	778	155.8	-1.80019E-001	4.82806E-008	0.00000E+000	-1.80000E-001	1.46130E-003	6	...........	-327.66
	779	156	-1.70020E-001	4.86133E-008	0.00000E+000	-1.70000E-001	1.45284E-003	6	...........	-327.66
	780	156.2	-1.60037E-001	4.87722E-008	0.00000E+000	-1.60000E-001	1.44751E-003	6	...........	-327.66
	781	156.4	-1.50031E-001	4.90715E-008	0.00000E+000	-1.50000E-001	1.45279E-003	6	...........	-327.66
	782	156.6	-1.40005E-001	4.92847E-008	0.00000E+000	-1.40000E-001	1.45543E-003	6	...........	-327.66
	783	156.8	-1.30023E-001	4.95640E-008	0.00000E+000	-1.30000E-001	1.46233E-003	6	...........	-327.66
	784	157	-1.20017E-001	4.98075E-008	0.00000E+000	-1.20000E-001	1.45465E-003	6	...........	-327.66
	785	157.2	-1.09991E-001	4.99512E-008	0.00000E+000	-1.10000E-001	1.45971E-003	6	...........	-327.66
	786	157.4	-1.00017E-001	5.00882E-008	0.00000E+000	-1.00000E-001	1.44864E-003	6	...........	-327.66
	787	157.6	-8.99940E-002	5.05127E-008	0.00000E+000	-9.00000E-002	1.45593E-003	6	...........	-327.66
	788	157.8	-8.00224E-002	5.06726E-008	0.00000E+000	-8.00000E-002	1.44993E-003	6	...........	-327.66
	789	158	-6.99955E-002	5.08059E-008	0.00000E+000	-7.00000E-002	1.44998E-003	6	...........	-327.66
	790	158.2	-6.00170E-002	5.08602E-008	0.00000E+000	-6.00000E-002	1.45848E-003	6	...........	-327.66
	791	158.4	-5.00353E-002	5.11035E-008	0.00000E+000	-5.00000E-002	1.45249E-003	6	...........	-327.66
	792	158.6	-3.99718E-002	5.14189E-008	0.00000E+000	-4.00000E-002	1.46243E-003	6	...........	-327.66
	793	158.8	-2.99769E-002	5.16267E-008	0.00000E+000	-3.00000E-002	1.45226E-003	6	...........	-327.66
	794	159	-1.99996E-002	5.14629E-008	0.00000E+000	-2.00000E-002	1.45158E-003	6	...........	-327.66
	795	159.2	-1.00072E-002	5.17195E-008	0.00000E+000	-1.00000E-002	1.44528E-003	6	...........	-327.66
	796	159.4	-2.50335E-005	5.19091E-008	0.00000E+000	-1.49012E-008	1.44548E-003	6	...........	-327.66
	797	159.6	1.00200E-002	5.21318E-008	0.00000E+000	9.99999E-003	1.45681E-003	6	...........	-327.66
	798	159.8	1.99928E-002	5.21508E-008	0.00000E+000	2.00000E-002	1.45681E-003	6	...........	-327.66
	799	160	2.99973E-002	5.22091E-008	0.00000E+000	3.00000E-002	1.45998E-003	6	...........	-327.66
	800	160.2	3.97863E-002	5.24166E-008	0.00000E+000	4.00000E-002	1.46218E-003	6	...........	-327.66
	801	160.4	5.00239E-002	5.26469E-008	0.00000E+000	5.00000E-002	1.45878E-003	6	...........	-327.66
	802	160.6	6.00059E-002	5.27010E-008	0.00000E+000	6.00000E-002	1.44994E-003	6	...........	-327.66
	803	160.8	7.00064E-002	5.28600E-008	0.00000E+000	7.00000E-002	1.45365E-003	6	...........	-327.66
	804	161	7.99779E-002	5.30506E-008	0.00000E+000	8.00000E-002	1.44419E-003	6	...........	-327.66
	805	161.2	9.00908E-002	5.32751E-008	0.00000E+000	9.00000E-002	1.45716E-003	6	...........	-327.66
	806	161.4	9.99895E-002	5.34254E-008	0.00000E+000	1.00000E-001	1.46410E-003	6	...........	-327.66
	807	161.6	1.09997E-001	5.37564E-008	0.00000E+000	1.10000E-001	1.46185E-003	6	...........	-327.66
	808	161.8	1.19999E-001	5.39489E-008	0.00000E+000	1.20000E-001	1.45538E-003	6	...........	-327.66
	809	162	1.30017E-001	5.42561E-008	0.00000E+000	1.30000E-001	1.45708E-003	6	...........	-327.66
	810	162.2	1.40050E-001	5.44094E-008	0.00000E+000	1.40000E-001	1.45843E-003	6	...........	-327.66
	811	162.4	1.50012E-001	5.46665E-008	0.00000E+000	1.50000E-001	1.45216E-003	6	...........	-327.66
	812	162.6	1.59979E-001	5.48724E-008	0.00000E+000	1.60000E-001	1.44651E-003	6	...........	-327.66
	813	162.8	1.70067E-001	5.51652E-008	0.00000E+000	1.70000E-001	1.45445E-003	6	...........	-327.66
	814	163	1.79987E-001	5.52674E-008	0.00000E+000	1.80000E-001	1.45378E-003	6	...........	-327.66
	815	163.2	1.89995E-001	5.55239E-008	0.00000E+000	1.90000E-001	1.45786E-003	6	...........	-327.66
	816	163.4	1.99981E-001	5.57345E-008	0.00000E+000	2.00000E-001	1.46150E-003	6	...........	-327.66
	817	163.6	2.09978E-001	5.59498E-008	0.00000E+000	2.10000E-001	1.45873E-003	6	...........	-327.66
	818	163.8	2.19936E-001	5.61111E-008	0.00000E+000	2.20000E-001	1.44676E-003	6	...........	-327.66
	819	164	2.29990E-001	5.62720E-008	0.00000E+000	2.30000E-001	1.45351E-003	6	...........	-327.66
	820	164.2	2.39960E-001	5.64919E-008	0.00000E+000	2.40000E-001	1.43941E-003	6	...........	-327.66
	821	164.4	2.50004E-001	5.67565E-008	0.00000E+000	2.50000E-001	1.45111E-003	6	...........	-327.66
	822	164.6	2.59971E-001	5.68162E-008	0.00000E+000	2.60000E-001	1.46143E-003	6	...........	-327.66
	823	164.8	2.69995E-001	5.71125E-008	0.00000E+000	2.70000E-001	1.45209E-003	6	...........	-327.66
	824	165	2.79961E-001	5.73073E-008	0.00000E+000	2.80000E-001	1.45790E-003	6	...........	-327.66
	825	165.2	2.89967E-001	5.75950E-008	0.00000E+000	2.90000E-001	1.46255E-003	6	...........	-327.66
	826	165.4	2.99976E-001	5.77288E-008	0.00000E+000	3.00000E-001	1.45268E-003	6	...........	-327.66
	827	165.6	3.09981E-001	5.80061E-008	0.00000E+000	3.10000E-001	1.45816E-003	6	...........	-327.66
	828	165.8	3.19969E-001	5.82617E-008	0.00000E+000	3.20000E-001	1.45169E-003	6	...........	-327.66
	829	166	3.29990E-001	5.85846E-008	0.00000E+000	3.30000E-001	1.44906E-003	6	...........	-327.66
	830	166.2	3.39981E-001	5.87536E-008	0.00000E+000	3.40000E-001	1.46620E-003	6	...........	-327.66
	831	166.4	3.50011E-001	5.90420E-008	0.00000E+000	3.50000E-001	1.46528E-003	6	...........	-327.66
	832	166.6	3.59938E-001	5.93616E-008	0.00000E+000	3.60000E-001	1.46245E-003	6	...........	-327.66
	833	166.8	3.69975E-001	5.97143E-008	0.00000E+000	3.70000E-001	1.45046E-003	6	...........	-327.66
	834	167	3.79979E-001	5.99674E-008	0.00000E+000	3.80000E-001	1.45520E-003	6	...........	-327.66
	835	167.2	3.89967E-001	6.03194E-008	0.00000E+000	3.90000E-001	1.45583E-003	6	...........	-327.66
	836	167.4	3.99945E-001	6.07092E-008	0.00000E+000	4.00000E-001	1.45741E-003	6	...........	-327.66
	837	167.6	4.09965E-001	6.10697E-008	0.00000E+000	4.10000E-001	1.45301E-003	6	...........	-327.66
	838	167.8	4.19984E-001	6.14580E-008	0.00000E+000	4.20000E-001	1.45880E-003	6	...........	-327.66
	839	168	4.29979E-001	6.18658E-008	0.00000E+000	4.30000E-001	1.45566E-003	6	...........	-327.66
	840	168.2	4.39943E-001	6.22631E-008	0.00000E+000	4.40000E-001	1.45960E-003	6	...........	-327.66
	841	168.4	4.49998E-001	6.27160E-008	0.00000E+000	4.50000E-001	1.45446E-003	6	...........	-327.66
	842	168.6	4.59973E-001	6.31186E-008	0.00000E+000	4.60000E-001	1.45786E-003	6	...........	-327.66
	843	168.8	4.69945E-001	6.36166E-008	0.00000E+000	4.70000E-001	1.46026E-003	6	...........	-327.66
	844	169	4.79944E-001	6.40953E-008	0.00000E+000	4.80000E-001	1.45811E-003	6	...........	-327.66
	845	169.2	4.89950E-001	6.46500E-008	0.00000E+000	4.90000E-001	1.44916E-003	6	...........	-327.66
	846	169.4	4.99985E-001	6.51825E-008	0.00000E+000	5.00000E-001	1.46470E-003	6	...........	-327.66
	847	169.6	5.09966E-001	6.57648E-008	0.00000E+000	5.10000E-001	1.47130E-003	6	...........	-327.66
	848	169.8	5.19951E-001	6.63958E-008	0.00000E+000	5.20000E-001	1.46293E-003	6	...........	-327.66
	849	170	5.29989E-001	6.70469E-008	0.00000E+000	5.30000E-001	1.46380E-003	6	...........	-327.66
	850	170.2	5.39977E-001	6.77275E-008	0.00000E+000	5.40000E-001	1.45094E-003	6	...........	-327.66
	851	170.4	5.49968E-001	6.85467E-008	0.00000E+000	5.50000E-001	1.45591E-003	6	...........	-327.66
	852	170.6	5.59961E-001	6.94576E-008	0.00000E+000	5.60000E-001	1.44321E-003	6	...........	-327.66
	853	170.8	5.69966E-001	7.04208E-008	0.00000E+000	5.70000E-001	1.44794E-003	6	...........	-327.66
	854	171	5.79975E-001	7.14365E-008	0.00000E+000	5.80000E-001	1.46055E-003	6	...........	-327.66
	855	171.2	5.89961E-001	7.27188E-008	0.00000E+000	5.90000E-001	1.45823E-003	6	...........	-327.66
	856	171.4	5.99959E-001	7.39981E-008	0.00000E+000	6.00000E-001	1.46412E-003	6	...........	-327.66
CURVE4	TABLE
	Pt	T	Vf	Im	Vu	Sig	Ach	IERange	Over	Temp
	#	s	V vs. Ref.	A	V	V	V	#	bits	deg C
	857	171.6	5.89986E-001	-6.35144E-009	0.00000E+000	5.90000E-001	1.46151E-003	6	...........	-327.66
	858	171.8	5.79994E-001	-1.37795E-008	0.00000E+000	5.80000E-001	1.46231E-003	6	...........	-327.66
	859	172	5.69986E-001	-1.82339E-008	0.00000E+000	5.70000E-001	1.45546E-003	6	...........	-327.66
	860	172.2	5.59956E-001	-2.14906E-008	0.00000E+000	5.60000E-001	1.45815E-003	6	...........	-327.66
	861	172.4	5.49991E-001	-2.38613E-008	0.00000E+000	5.50000E-001	1.45758E-003	6	...........	-327.66
	862	172.6	5.39996E-001	-2.57432E-008	0.00000E+000	5.40000E-001	1.45278E-003	6	...........	-327.66
	863	172.8	5.30012E-001	-2.71655E-008	0.00000E+000	5.30000E-001	1.46922E-003	6	...........	-327.66
	864	173	5.19980E-001	-2.83244E-008	0.00000E+000	5.20000E-001	1.45888E-003	6	...........	-327.66
	865	173.2	5.09974E-001	-2.92829E-008	0.00000E+000	5.10000E-001	1.47033E-003	6	...........	-327.66
	866	173.4	5.00008E-001	-3.01122E-008	0.00000E+000	5.00000E-001	1.46518E-003	6	...........	-327.66
	867	173.6	4.89976E-001	-3.08100E-008	0.00000E+000	4.90000E-001	1.45353E-003	6	...........	-327.66
	868	173.8	4.79965E-001	-3.14778E-008	0.00000E+000	4.80000E-001	1.45373E-003	6	...........	-327.66
	869	174	4.69974E-001	-3.20033E-008	0.00000E+000	4.70000E-001	1.45221E-003	6	...........	-327.66
	870	174.2	4.59996E-001	-3.25463E-008	0.00000E+000	4.60000E-001	1.45408E-003	6	...........	-327.66
	871	174.4	4.50038E-001	-3.29059E-008	0.00000E+000	4.50000E-001	1.45738E-003	6	...........	-327.66
	872	174.6	4.39945E-001	-3.33773E-008	0.00000E+000	4.40000E-001	1.45945E-003	6	...........	-327.66
	873	174.8	4.29995E-001	-3.37133E-008	0.00000E+000	4.30000E-001	1.46570E-003	6	...........	-327.66
	874	175	4.20043E-001	-3.40754E-008	0.00000E+000	4.20000E-001	1.45983E-003	6	...........	-327.66
	875	175.2	4.09983E-001	-3.43421E-008	0.00000E+000	4.10000E-001	1.44733E-003	6	...........	-327.66
	876	175.4	3.99977E-001	-3.46826E-008	0.00000E+000	4.00000E-001	1.45059E-003	6	...........	-327.66
	877	175.6	3.89992E-001	-3.50225E-008	0.00000E+000	3.90000E-001	1.44581E-003	6	...........	-327.66
	878	175.8	3.79999E-001	-3.52767E-008	0.00000E+000	3.80000E-001	1.45520E-003	6	...........	-327.66
	879	176	3.70030E-001	-3.54442E-008	0.00000E+000	3.70000E-001	1.46487E-003	6	...........	-327.66
	880	176.2	3.59959E-001	-3.57654E-008	0.00000E+000	3.60000E-001	1.45331E-003	6	...........	-327.66
	881	176.4	3.50026E-001	-3.60255E-008	0.00000E+000	3.50000E-001	1.46450E-003	6	...........	-327.66
	882	176.6	3.40011E-001	-3.62447E-008	0.00000E+000	3.40000E-001	1.46050E-003	6	...........	-327.66
	883	176.8	3.30017E-001	-3.63724E-008	0.00000E+000	3.30000E-001	1.45119E-003	6	...........	-327.66
	884	177	3.19990E-001	-3.66622E-008	0.00000E+000	3.20000E-001	1.45306E-003	6	...........	-327.66
	885	177.2	3.09996E-001	-3.68331E-008	0.00000E+000	3.10000E-001	1.44701E-003	6	...........	-327.66
	886	177.4	2.99999E-001	-3.71391E-008	0.00000E+000	3.00000E-001	1.45913E-003	6	...........	-327.66
	887	177.6	2.90010E-001	-3.71784E-008	0.00000E+000	2.90000E-001	1.45425E-003	6	...........	-327.66
	888	177.8	2.79984E-001	-3.74568E-008	0.00000E+000	2.80000E-001	1.45341E-003	6	...........	-327.66
	889	178	2.70094E-001	-3.75979E-008	0.00000E+000	2.70000E-001	1.45241E-003	6	...........	-327.66
	890	178.2	2.60004E-001	-3.78564E-008	0.00000E+000	2.60000E-001	1.47052E-003	6	...........	-327.66
	891	178.4	2.50049E-001	-3.78876E-008	0.00000E+000	2.50000E-001	1.44371E-003	6	...........	-327.66
	892	178.6	2.40009E-001	-3.81567E-008	0.00000E+000	2.40000E-001	1.45049E-003	6	...........	-327.66
	893	178.8	2.30003E-001	-3.83561E-008	0.00000E+000	2.30000E-001	1.45073E-003	6	...........	-327.66
	894	179	2.20006E-001	-3.85737E-008	0.00000E+000	2.20000E-001	1.43272E-003	6	...........	-327.66
	895	179.2	2.10007E-001	-3.86690E-008	0.00000E+000	2.10000E-001	1.45896E-003	6	...........	-327.66
	896	179.4	2.00002E-001	-3.88440E-008	0.00000E+000	2.00000E-001	1.45483E-003	6	...........	-327.66
	897	179.6	1.90058E-001	-3.90359E-008	0.00000E+000	1.90000E-001	1.46130E-003	6	...........	-327.66
	898	179.8	1.80019E-001	-3.92507E-008	0.00000E+000	1.80000E-001	1.45233E-003	6	...........	-327.66
	899	180	1.70103E-001	-3.93663E-008	0.00000E+000	1.70000E-001	1.44873E-003	6	...........	-327.66
	900	180.2	1.60016E-001	-3.95817E-008	0.00000E+000	1.60000E-001	1.45253E-003	6	...........	-327.66