File: Test_Data_Files/20250424_E_CHI105_2mmAu_E000_PBSarg_CV500.DTA
EXPLAIN
TAG	CV
TITLE	LABEL	Cyclic Voltammetry	Test &Identifier
DATE	LABEL	4/24/2025	Date
TIME	LABEL	16:59:26	Time
NOTES	NOTES	3	&Notes...

PSTAT	PSTAT	IFC1010-32247	Potentiostat
VINIT	POTEN	0.00000E+000	T	Initial &E (V)
VLIMIT1	POTEN	-6.00000E-001	F	Scan Limit &1 (V)
VLIMIT2	POTEN	8.00000E-001	F	Scan Limit &2 (V)
VFINAL	POTEN	0.00000E+000	T	Final &E (V)
SCANRATE	QUANT	4.99999E+002	&Scan Rate (mV/s)
STEPSIZE	QUANT	1.00000E+001	St&ep Size (mV)
CYCLES	IQUANT	3	C&ycles (#)
IMODE	SELECTOR	1	I/E Range &Mode
IRANGE	QUANT	1.00000E-002	&Max Current (mA)
AREA	QUANT	1.00000E+000	Electrode &Area (cm^2)
ELECTRODETYPE	SELECTOR	0	Electrode Type
STRIPPING	TOGGLE	F	Used for Stripping
CONDIT	TWOPARAM	F	1.50000E+001	0.00000E+000	Conditionin&g	Time(s)	E(V)
DELAY	TWOPARAM	T	1.50000E+001	0.00000E+000	Init. De&lay	Time(s)	Stab.(mV/s)
EQDELAY	QUANT	0.00000E+000	Equil. &Time (s)
IRCOMP	SELECTOR	0	IRCom&p
PFCOR	QUANT	5.00000E+001	PF Corr. (ohm)
SAMPLINGMODE	SELECTOR	2	Sampling &Mode
OCVCURVE	TABLE	58
	Pt	T	Vf	Vm	Ach	Over	Temp
	#	s	V vs. Ref.	V	V	bits	deg C
	0	0.258333	2.64980E-001	2.64980E-001	0.00000E+000	...........	1367.91
	1	0.516667	2.64978E-001	2.64914E-001	0.00000E+000	...........	1367.91
	2	0.775	2.64971E-001	2.64855E-001	0.00000E+000	...........	1367.91
	3	1.03333	2.64950E-001	2.64803E-001	0.00000E+000	...........	1367.91
	4	1.29167	2.64912E-001	2.64737E-001	0.00000E+000	...........	1367.91
	5	1.55	2.64861E-001	2.64664E-001	0.00000E+000	...........	1368.00
	6	1.80833	2.64803E-001	2.64602E-001	0.00000E+000	...........	1368.00
	7	2.06667	2.64739E-001	2.64560E-001	0.00000E+000	...........	1368.00
	8	2.325	2.64676E-001	2.64490E-001	0.00000E+000	...........	1367.97
	9	2.58333	2.64615E-001	2.64440E-001	0.00000E+000	...........	1367.83
	10	2.84167	2.64556E-001	2.64377E-001	0.00000E+000	...........	1367.83
	11	3.1	2.64499E-001	2.64310E-001	0.00000E+000	...........	1367.83
	12	3.35833	2.64440E-001	2.64253E-001	0.00000E+000	...........	1367.83
	13	3.61667	2.64380E-001	2.64197E-001	0.00000E+000	...........	1367.83
	14	3.875	2.64319E-001	2.64147E-001	0.00000E+000	...........	1367.83
	15	4.13333	2.64260E-001	2.64071E-001	0.00000E+000	...........	1367.83
	16	4.39167	2.64202E-001	2.64021E-001	0.00000E+000	...........	1367.91
	17	4.65	2.64143E-001	2.63945E-001	0.00000E+000	...........	1367.91
	18	4.90833	2.64082E-001	2.63904E-001	0.00000E+000	...........	1367.91
	19	5.16667	2.64021E-001	2.63832E-001	0.00000E+000	...........	1367.91
	20	5.425	2.63960E-001	2.63771E-001	0.00000E+000	...........	1368.00
	21	5.68333	2.63900E-001	2.63723E-001	0.00000E+000	...........	1368.00
	22	5.94167	2.63839E-001	2.63647E-001	0.00000E+000	...........	1368.00
	23	6.2	2.63779E-001	2.63591E-001	0.00000E+000	...........	1368.00
	24	6.45833	2.63719E-001	2.63531E-001	0.00000E+000	...........	1367.91
	25	6.71667	2.63657E-001	2.63477E-001	0.00000E+000	...........	1367.91
	26	6.975	2.63597E-001	2.63405E-001	0.00000E+000	...........	1367.91
	27	7.23333	2.63537E-001	2.63366E-001	0.00000E+000	...........	1367.91
	28	7.49167	2.63478E-001	2.63313E-001	0.00000E+000	...........	1367.91
	29	7.75	2.63421E-001	2.63244E-001	0.00000E+000	...........	1367.91
	30	8.00833	2.63365E-001	2.63167E-001	0.00000E+000	...........	1367.91
	31	8.26667	2.63307E-001	2.63111E-001	0.00000E+000	...........	1367.91
	32	8.525	2.63245E-001	2.63066E-001	0.00000E+000	...........	1368.00
	33	8.78333	2.63183E-001	2.63014E-001	0.00000E+000	...........	1368.00
	34	9.04167	2.63123E-001	2.62949E-001	0.00000E+000	...........	1368.00
	35	9.3	2.63067E-001	2.62896E-001	0.00000E+000	...........	1368.00
	36	9.5583	2.63012E-001	2.62833E-001	0.00000E+000	...........	1368.00
	37	9.8167	2.62955E-001	2.62773E-001	0.00000E+000	...........	1368.00
	38	10.075	2.62898E-001	2.62725E-001	0.00000E+000	...........	1368.00
	39	10.3333	2.62839E-001	2.62665E-001	0.00000E+000	...........	1367.94
	40	10.5917	2.62782E-001	2.62585E-001	0.00000E+000	...........	1367.83
	41	10.85	2.62723E-001	2.62535E-001	0.00000E+000	...........	1367.83
	42	11.1083	2.62662E-001	2.62466E-001	0.00000E+000	...........	1367.83
	43	11.3667	2.62599E-001	2.62415E-001	0.00000E+000	...........	1367.83
	44	11.625	2.62537E-001	2.62368E-001	0.00000E+000	...........	1367.83
	45	11.8833	2.62478E-001	2.62297E-001	0.00000E+000	...........	1367.83
	46	12.1417	2.62421E-001	2.62245E-001	0.00000E+000	...........	1367.83
	47	12.4	2.62364E-001	2.62183E-001	0.00000E+000	...........	1367.91
	48	12.6583	2.62306E-001	2.62125E-001	0.00000E+000	...........	1367.91
	49	12.9167	2.62248E-001	2.62080E-001	0.00000E+000	...........	1367.91
	50	13.175	2.62190E-001	2.62006E-001	0.00000E+000	...........	1367.91
	51	13.4333	2.62132E-001	2.61936E-001	0.00000E+000	...........	1367.91
	52	13.6917	2.62073E-001	2.61895E-001	0.00000E+000	...........	1367.91
	53	13.95	2.62012E-001	2.61838E-001	0.00000E+000	...........	1367.91
	54	14.2083	2.61953E-001	2.61773E-001	0.00000E+000	...........	1367.91
	55	14.4667	2.61895E-001	2.61706E-001	0.00000E+000	...........	1368.00
	56	14.725	2.61837E-001	2.61663E-001	0.00000E+000	...........	1368.00
	57	14.9833	2.61778E-001	2.61600E-001	0.00000E+000	...........	1368.00
EOC	QUANT	0.2617777	Open Circuit (V)
PSTATMODEL	IQUANT	64	Pstat Model
PSTATSECTION	LABEL	IFC1010-32247	Pstat Section
PSTATSERIALNO	LABEL	32247	Pstat Serial Number
CTRLMODE	IQUANT	1	Control Mode
ELECTROMETER	IQUANT	0	RE=0 or CS=1
IESTAB	IQUANT	2	I/E Stability
CASPEED	IQUANT	4	Control Amp Speed
CONVENTION	IQUANT	1	Current Convention
ICHRANGE	IQUANT	2	Ich Range
ICHRANGEMODE	TOGGLE	F	Ich Auto Range
ICHOFFSETENABLE	TOGGLE	F	Ich Offset Enable
ICHOFFSET	QUANT	0	Ich Offset (V)
ICHFILTER	IQUANT	3	Ich Filter
VCHRANGE	IQUANT	2	Vch Range
VCHRANGEMODE	TOGGLE	F	Vch Auto Range
VCHOFFSETENABLE	TOGGLE	F	Vch Offset Enable
VCHOFFSET	QUANT	0	Vch Offset (V)
VCHFILTER	IQUANT	3	Vch Filter
IERANGELOWERLIMIT	IQUANT	4	I/E Range Lower Limit
IERANGEMODE	TOGGLE	F	I/E AutoRange
IERANGE	IQUANT	8	I/E Range
ACHSELECT	IQUANT	0	Ach Select
ACHRANGE	IQUANT	2	Ach Range
ACHOFFSETENABLE	TOGGLE	F	Ach Offset Enable
ACHOFFSET	QUANT	0	Ach Offset (V)
ACHFILTER	IQUANT	1	Ach Filter
SENSECABLEID	IQUANT	14	Sense Cable ID
PWRCABLEID	IQUANT	14	Power Cable ID
DCCALDATE	LABEL	11/18/2024	DC Calibration Date
ACCALDATE	LABEL	4/18/2022	AC Calibration Date
FRAMEWORKVERSION	LABEL	7.10.3	Framework Version
INSTRUMENTVERSION	LABEL	4.91	Instrument Version
COMMVERSION	LABEL	3.10	Communications Version
CPUPLDVERSION	LABEL	2.22	CPU PLD Version
CTRLPLDVERSION	LABEL	0.00	CTRL PLD Version
PSTATPLDVERSION	LABEL	0.00	PSTAT PLD Version
CURVE1	TABLE
	Pt	T	Vf	Im	Vu	Sig	Ach	IERange	Over	Temp
	#	s	V vs. Ref.	A	V	V	V	#	bits	deg C
	0	0.02	2.61814E-001	2.22635E-008	0.00000E+000	2.61782E-001	0.00000E+000	8	...........	1367.91
	1	0.04	2.51918E-001	-3.05275E-006	0.00000E+000	2.51785E-001	0.00000E+000	8	...........	1367.91
	2	0.06	2.41924E-001	-3.12275E-006	0.00000E+000	2.41787E-001	0.00000E+000	8	...........	1367.91
	3	0.08	2.31951E-001	-3.16368E-006	0.00000E+000	2.31790E-001	0.00000E+000	8	...........	1367.91
	4	0.1	2.21939E-001	-3.20471E-006	0.00000E+000	2.21792E-001	0.00000E+000	8	...........	1367.91
	5	0.12	2.11933E-001	-3.22540E-006	0.00000E+000	2.11795E-001	0.00000E+000	8	...........	1367.91
	6	0.14	2.01933E-001	-3.20359E-006	0.00000E+000	2.01797E-001	0.00000E+000	8	...........	1367.91
	7	0.16	1.91952E-001	-3.16265E-006	0.00000E+000	1.91800E-001	0.00000E+000	8	...........	1367.91
	8	0.18	1.81942E-001	-3.12342E-006	0.00000E+000	1.81802E-001	0.00000E+000	8	...........	1367.91
	9	0.2	1.71884E-001	-3.10045E-006	0.00000E+000	1.71755E-001	0.00000E+000	8	...........	1367.91
	10	0.22	1.61883E-001	-3.03638E-006	0.00000E+000	1.61758E-001	0.00000E+000	8	...........	1367.91
	11	0.24	1.51883E-001	-2.97042E-006	0.00000E+000	1.51760E-001	0.00000E+000	8	...........	1367.91
	12	0.26	1.41909E-001	-2.91302E-006	0.00000E+000	1.41763E-001	0.00000E+000	8	...........	1367.91
	13	0.28	1.31904E-001	-2.87485E-006	0.00000E+000	1.31765E-001	0.00000E+000	8	...........	1367.91
	14	0.3	1.21901E-001	-2.85035E-006	0.00000E+000	1.21768E-001	0.00000E+000	8	...........	1367.91
	15	0.32	1.11908E-001	-2.83809E-006	0.00000E+000	1.11770E-001	0.00000E+000	8	...........	1367.91
	16	0.34	1.01910E-001	-2.83486E-006	0.00000E+000	1.01773E-001	0.00000E+000	8	...........	1367.91
	17	0.36	9.19099E-002	-2.83622E-006	0.00000E+000	9.17755E-002	0.00000E+000	8	...........	1367.91
	18	0.38	8.19150E-002	-2.84682E-006	0.00000E+000	8.17780E-002	0.00000E+000	8	...........	1367.91
	19	0.4	7.19218E-002	-2.86114E-006	0.00000E+000	7.17806E-002	0.00000E+000	8	...........	1367.91
	20	0.42	6.19144E-002	-2.87902E-006	0.00000E+000	6.17832E-002	0.00000E+000	8	...........	1367.91
	21	0.44	5.19325E-002	-2.90182E-006	0.00000E+000	5.17857E-002	0.00000E+000	8	...........	1367.91
	22	0.46	4.19368E-002	-2.92720E-006	0.00000E+000	4.17883E-002	0.00000E+000	8	...........	1367.91
	23	0.48	3.19404E-002	-2.95752E-006	0.00000E+000	3.17908E-002	0.00000E+000	8	...........	1367.91
	24	0.5	2.19308E-002	-2.98991E-006	0.00000E+000	2.17934E-002	0.00000E+000	8	...........	1367.91
	25	0.52	1.19180E-002	-3.02717E-006	0.00000E+000	1.17960E-002	0.00000E+000	8	...........	1367.91
	26	0.54	1.94626E-003	-3.06914E-006	0.00000E+000	1.79851E-003	0.00000E+000	8	...........	1367.91
	27	0.56	-8.08203E-003	-3.11857E-006	0.00000E+000	-8.19893E-003	0.00000E+000	8	...........	1367.91
	28	0.58	-1.81391E-002	-3.18322E-006	0.00000E+000	-1.82464E-002	0.00000E+000	8	...........	1367.91
	29	0.6	-2.81460E-002	-3.21971E-006	0.00000E+000	-2.82438E-002	0.00000E+000	8	...........	1367.91
	30	0.62	-3.81311E-002	-3.25193E-006	0.00000E+000	-3.82412E-002	0.00000E+000	8	...........	1367.91
	31	0.64	-4.81274E-002	-3.26922E-006	0.00000E+000	-4.82387E-002	0.00000E+000	8	...........	1367.91
	32	0.66	-5.81489E-002	-3.28118E-006	0.00000E+000	-5.82361E-002	0.00000E+000	8	...........	1367.91
	33	0.68	-6.81294E-002	-3.29689E-006	0.00000E+000	-6.82336E-002	0.00000E+000	8	...........	1367.91
	34	0.7	-7.81315E-002	-3.31905E-006	0.00000E+000	-7.82310E-002	0.00000E+000	8	...........	1367.91
	35	0.72	-8.81283E-002	-3.34464E-006	0.00000E+000	-8.82284E-002	0.00000E+000	8	...........	1367.91
	36	0.74	-9.81277E-002	-3.37864E-006	0.00000E+000	-9.82259E-002	0.00000E+000	8	...........	1367.91
	37	0.76	-1.08117E-001	-3.41240E-006	0.00000E+000	-1.08223E-001	0.00000E+000	8	...........	1367.91
	38	0.78	-1.18118E-001	-3.45844E-006	0.00000E+000	-1.18221E-001	0.00000E+000	8	...........	1367.91
	39	0.8	-1.28111E-001	-3.50419E-006	0.00000E+000	-1.28218E-001	0.00000E+000	8	...........	1367.91
	40	0.82	-1.38101E-001	-3.55231E-006	0.00000E+000	-1.38216E-001	0.00000E+000	8	...........	1367.91
	41	0.84	-1.48107E-001	-3.60132E-006	0.00000E+000	-1.48213E-001	0.00000E+000	8	...........	1367.91
	42	0.86	-1.58104E-001	-3.65268E-006	0.00000E+000	-1.58211E-001	0.00000E+000	8	...........	1367.91
	43	0.88	-1.68099E-001	-3.70363E-006	0.00000E+000	-1.68208E-001	0.00000E+000	8	...........	1367.91
	44	0.9	-1.78083E-001	-3.75208E-006	0.00000E+000	-1.78205E-001	0.00000E+000	8	...........	1367.91
	45	0.92	-1.88085E-001	-3.79941E-006	0.00000E+000	-1.88203E-001	0.00000E+000	8	...........	1367.91
	46	0.94	-1.98091E-001	-3.84610E-006	0.00000E+000	-1.98200E-001	0.00000E+000	8	...........	1367.91
	47	0.96	-2.08093E-001	-3.88583E-006	0.00000E+000	-2.08198E-001	0.00000E+000	8	...........	1367.91
	48	0.98	-2.18157E-001	-3.92975E-006	0.00000E+000	-2.18245E-001	0.00000E+000	8	...........	1367.91
	49	1	-2.28136E-001	-3.94056E-006	0.00000E+000	-2.28243E-001	0.00000E+000	8	...........	1367.91
	50	1.02	-2.38139E-001	-3.95431E-006	0.00000E+000	-2.38240E-001	0.00000E+000	8	...........	1367.91
	51	1.04	-2.48136E-001	-3.96089E-006	0.00000E+000	-2.48237E-001	0.00000E+000	8	...........	1367.91
	52	1.06	-2.58136E-001	-3.95816E-006	0.00000E+000	-2.58235E-001	0.00000E+000	8	...........	1367.91
	53	1.08	-2.68122E-001	-3.94445E-006	0.00000E+000	-2.68232E-001	0.00000E+000	8	...........	1367.91
	54	1.1	-2.78103E-001	-3.92627E-006	0.00000E+000	-2.78230E-001	0.00000E+000	8	...........	1367.91
	55	1.12	-2.88094E-001	-3.90135E-006	0.00000E+000	-2.88227E-001	0.00000E+000	8	...........	1367.91
	56	1.14	-2.98126E-001	-3.87216E-006	0.00000E+000	-2.98225E-001	0.00000E+000	8	...........	1367.91
	57	1.16	-3.08134E-001	-3.83786E-006	0.00000E+000	-3.08222E-001	0.00000E+000	8	...........	1367.91
	58	1.18	-3.18086E-001	-3.78990E-006	0.00000E+000	-3.18220E-001	0.00000E+000	8	...........	1367.91
	59	1.2	-3.28081E-001	-3.75068E-006	0.00000E+000	-3.28217E-001	0.00000E+000	8	...........	1367.91
	60	1.22	-3.38093E-001	-3.70373E-006	0.00000E+000	-3.38214E-001	0.00000E+000	8	...........	1367.91
	61	1.24	-3.48098E-001	-3.65059E-006	0.00000E+000	-3.48212E-001	0.00000E+000	8	...........	1367.91
	62	1.26	-3.58092E-001	-3.59916E-006	0.00000E+000	-3.58209E-001	0.00000E+000	8	...........	1367.91
	63	1.28	-3.68090E-001	-3.54117E-006	0.00000E+000	-3.68207E-001	0.00000E+000	8	...........	1367.91
	64	1.3	-3.78085E-001	-3.48291E-006	0.00000E+000	-3.78204E-001	0.00000E+000	8	...........	1367.91
	65	1.32	-3.88086E-001	-3.42226E-006	0.00000E+000	-3.88202E-001	0.00000E+000	8	...........	1367.91
	66	1.34	-3.98088E-001	-3.36290E-006	0.00000E+000	-3.98199E-001	0.00000E+000	8	...........	1367.91
	67	1.36	-4.08136E-001	-3.31305E-006	0.00000E+000	-4.08247E-001	0.00000E+000	8	...........	1367.91
	68	1.38	-4.18144E-001	-3.24134E-006	0.00000E+000	-4.18244E-001	0.00000E+000	8	...........	1367.91
	69	1.4	-4.28130E-001	-3.17953E-006	0.00000E+000	-4.28241E-001	0.00000E+000	8	...........	1367.91
	70	1.42	-4.38143E-001	-3.11885E-006	0.00000E+000	-4.38239E-001	0.00000E+000	8	...........	1367.50
	71	1.44	-4.48124E-001	-3.05934E-006	0.00000E+000	-4.48236E-001	0.00000E+000	8	...........	1366.97
	72	1.46	-4.58142E-001	-2.99919E-006	0.00000E+000	-4.58234E-001	0.00000E+000	8	...........	1366.97
	73	1.48	-4.68146E-001	-2.94084E-006	0.00000E+000	-4.68231E-001	0.00000E+000	8	...........	1366.97
	74	1.5	-4.78150E-001	-2.88436E-006	0.00000E+000	-4.78229E-001	0.00000E+000	8	...........	1366.97
	75	1.52	-4.88157E-001	-2.82842E-006	0.00000E+000	-4.88226E-001	0.00000E+000	8	...........	1366.97
	76	1.54	-4.98143E-001	-2.77331E-006	0.00000E+000	-4.98223E-001	0.00000E+000	8	...........	1366.97
	77	1.56	-5.08148E-001	-2.72064E-006	0.00000E+000	-5.08221E-001	0.00000E+000	8	...........	1366.97
	78	1.58	-5.18134E-001	-2.66548E-006	0.00000E+000	-5.18218E-001	0.00000E+000	8	...........	1366.97
	79	1.6	-5.28117E-001	-2.61792E-006	0.00000E+000	-5.28216E-001	0.00000E+000	8	...........	1366.97
	80	1.62	-5.38135E-001	-2.56937E-006	0.00000E+000	-5.38213E-001	0.00000E+000	8	...........	1366.97
	81	1.64	-5.48116E-001	-2.52364E-006	0.00000E+000	-5.48211E-001	0.00000E+000	8	...........	1366.97
	82	1.66	-5.58121E-001	-2.48230E-006	0.00000E+000	-5.58208E-001	0.00000E+000	8	...........	1366.97
	83	1.68	-5.68130E-001	-2.44549E-006	0.00000E+000	-5.68206E-001	0.00000E+000	8	...........	1366.97
	84	1.7	-5.78123E-001	-2.40943E-006	0.00000E+000	-5.78203E-001	0.00000E+000	8	...........	1366.97
	85	1.72	-5.88087E-001	-2.37731E-006	0.00000E+000	-5.88200E-001	0.00000E+000	8	...........	1366.97
	86	1.74	-5.98108E-001	-2.35109E-006	0.00000E+000	-5.98198E-001	0.00000E+000	8	...........	1366.97
	87	1.76	-5.88335E-001	-1.04595E-007	0.00000E+000	-5.88200E-001	0.00000E+000	8	...........	1366.97
	88	1.78	-5.78344E-001	1.21821E-007	0.00000E+000	-5.78203E-001	0.00000E+000	8	...........	1366.97
	89	1.8	-5.68349E-001	2.82103E-007	0.00000E+000	-5.68206E-001	0.00000E+000	8	...........	1366.97
	90	1.82	-5.58323E-001	4.12745E-007	0.00000E+000	-5.58208E-001	0.00000E+000	8	...........	1366.97
	91	1.84	-5.48334E-001	5.22959E-007	0.00000E+000	-5.48211E-001	0.00000E+000	8	...........	1366.97
	92	1.86	-5.38344E-001	6.23474E-007	0.00000E+000	-5.38213E-001	0.00000E+000	8	...........	1366.97
	93	1.88	-5.28331E-001	7.19484E-007	0.00000E+000	-5.28216E-001	0.00000E+000	8	...........	1366.97
	94	1.9	-5.18335E-001	8.08981E-007	0.00000E+000	-5.18218E-001	0.00000E+000	8	...........	1366.97
	95	1.92	-5.08348E-001	8.93984E-007	0.00000E+000	-5.08221E-001	0.00000E+000	8	...........	1366.97
	96	1.94	-4.98350E-001	9.81672E-007	0.00000E+000	-4.98223E-001	0.00000E+000	8	...........	1366.97
	97	1.96	-4.88377E-001	1.06370E-006	0.00000E+000	-4.88226E-001	0.00000E+000	8	...........	1366.97
	98	1.98	-4.78370E-001	1.14781E-006	0.00000E+000	-4.78229E-001	0.00000E+000	8	...........	1366.97
	99	2	-4.68361E-001	1.23039E-006	0.00000E+000	-4.68231E-001	0.00000E+000	8	...........	1366.97
	100	2.02	-4.58357E-001	1.30975E-006	0.00000E+000	-4.58234E-001	0.00000E+000	8	...........	1366.97
	101	2.04	-4.48353E-001	1.38904E-006	0.00000E+000	-4.48236E-001	0.00000E+000	8	...........	1366.97
	102	2.06	-4.38376E-001	1.46980E-006	0.00000E+000	-4.38239E-001	0.00000E+000	8	...........	1366.97
	103	2.08	-4.28363E-001	1.55015E-006	0.00000E+000	-4.28241E-001	0.00000E+000	8	...........	1366.97
	104	2.1	-4.18363E-001	1.62954E-006	0.00000E+000	-4.18244E-001	0.00000E+000	8	...........	1366.97
	105	2.12	-4.08357E-001	1.70793E-006	0.00000E+000	-4.08247E-001	0.00000E+000	8	...........	1366.97
	106	2.14	-3.98321E-001	1.79647E-006	0.00000E+000	-3.98199E-001	0.00000E+000	8	...........	1366.97
	107	2.16	-3.88323E-001	1.86630E-006	0.00000E+000	-3.88202E-001	0.00000E+000	8	...........	1366.97
	108	2.18	-3.78327E-001	1.94485E-006	0.00000E+000	-3.78204E-001	0.00000E+000	8	...........	1366.97
	109	2.2	-3.68332E-001	2.02059E-006	0.00000E+000	-3.68207E-001	0.00000E+000	8	...........	1366.97
	110	2.22	-3.58341E-001	2.09636E-006	0.00000E+000	-3.58209E-001	0.00000E+000	8	...........	1366.97
	111	2.24	-3.48351E-001	2.17115E-006	0.00000E+000	-3.48212E-001	0.00000E+000	8	...........	1366.97
	112	2.26	-3.38345E-001	2.24118E-006	0.00000E+000	-3.38214E-001	0.00000E+000	8	...........	1366.97
	113	2.28	-3.28334E-001	2.31259E-006	0.00000E+000	-3.28217E-001	0.00000E+000	8	...........	1366.97
	114	2.3	-3.18337E-001	2.37756E-006	0.00000E+000	-3.18220E-001	0.00000E+000	8	...........	1366.97
	115	2.32	-3.08368E-001	2.43725E-006	0.00000E+000	-3.08222E-001	0.00000E+000	8	...........	1366.97
	116	2.34	-2.98367E-001	2.50243E-006	0.00000E+000	-2.98225E-001	0.00000E+000	8	...........	1366.97
	117	2.36	-2.88350E-001	2.56075E-006	0.00000E+000	-2.88227E-001	0.00000E+000	8	...........	1366.97
	118	2.38	-2.78358E-001	2.61457E-006	0.00000E+000	-2.78230E-001	0.00000E+000	8	...........	1366.97
	119	2.4	-2.68355E-001	2.66689E-006	0.00000E+000	-2.68232E-001	0.00000E+000	8	...........	1366.97
	120	2.42	-2.58365E-001	2.71569E-006	0.00000E+000	-2.58235E-001	0.00000E+000	8	...........	1366.93
	121	2.44	-2.48352E-001	2.76276E-006	0.00000E+000	-2.48237E-001	0.00000E+000	8	...........	1366.88
	122	2.46	-2.38356E-001	2.80459E-006	0.00000E+000	-2.38240E-001	0.00000E+000	8	...........	1366.88
	123	2.48	-2.28349E-001	2.84442E-006	0.00000E+000	-2.28243E-001	0.00000E+000	8	...........	1366.88
	124	2.5	-2.18376E-001	2.88018E-006	0.00000E+000	-2.18245E-001	0.00000E+000	8	...........	1366.88
	125	2.52	-2.08315E-001	2.92657E-006	0.00000E+000	-2.08198E-001	0.00000E+000	8	...........	1366.88
	126	2.54	-1.98319E-001	2.94697E-006	0.00000E+000	-1.98200E-001	0.00000E+000	8	...........	1366.88
	127	2.56	-1.88317E-001	2.97372E-006	0.00000E+000	-1.88203E-001	0.00000E+000	8	...........	1366.88
	128	2.58	-1.78319E-001	2.99547E-006	0.00000E+000	-1.78205E-001	0.00000E+000	8	...........	1366.88
	129	2.6	-1.68325E-001	3.01389E-006	0.00000E+000	-1.68208E-001	0.00000E+000	8	...........	1366.88
	130	2.62	-1.58326E-001	3.02731E-006	0.00000E+000	-1.58211E-001	0.00000E+000	8	...........	1366.88
	131	2.64	-1.48334E-001	3.03489E-006	0.00000E+000	-1.48213E-001	0.00000E+000	8	...........	1366.88
	132	2.66	-1.38328E-001	3.03610E-006	0.00000E+000	-1.38216E-001	0.00000E+000	8	...........	1366.88
	133	2.68	-1.28340E-001	3.03127E-006	0.00000E+000	-1.28218E-001	0.00000E+000	8	...........	1366.88
	134	2.7	-1.18346E-001	3.02435E-006	0.00000E+000	-1.18221E-001	0.00000E+000	8	...........	1366.88
	135	2.72	-1.08347E-001	3.01358E-006	0.00000E+000	-1.08223E-001	0.00000E+000	8	...........	1366.88
	136	2.74	-9.83511E-002	2.99947E-006	0.00000E+000	-9.82259E-002	0.00000E+000	8	...........	1366.88
	137	2.76	-8.83488E-002	2.99214E-006	0.00000E+000	-8.82284E-002	0.00000E+000	8	...........	1366.88
	138	2.78	-7.83584E-002	2.98371E-006	0.00000E+000	-7.82310E-002	0.00000E+000	8	...........	1366.88
	139	2.8	-6.83489E-002	2.98138E-006	0.00000E+000	-6.82336E-002	0.00000E+000	8	...........	1366.88
	140	2.82	-5.83756E-002	2.98246E-006	0.00000E+000	-5.82361E-002	0.00000E+000	8	...........	1366.88
	141	2.84	-4.83567E-002	2.98910E-006	0.00000E+000	-4.82387E-002	0.00000E+000	8	...........	1366.88
	142	2.86	-3.83665E-002	3.00743E-006	0.00000E+000	-3.82412E-002	0.00000E+000	8	...........	1366.88
	143	2.88	-2.83793E-002	3.03277E-006	0.00000E+000	-2.82438E-002	0.00000E+000	8	...........	1366.88
	144	2.9	-1.83720E-002	3.06281E-006	0.00000E+000	-1.82464E-002	0.00000E+000	8	...........	1366.88
	145	2.92	-8.31390E-003	3.09699E-006	0.00000E+000	-8.19893E-003	0.00000E+000	8	...........	1366.88
	146	2.94	1.70437E-003	3.09065E-006	0.00000E+000	1.79851E-003	0.00000E+000	8	...........	1366.88
	147	2.96	1.16831E-002	3.08238E-006	0.00000E+000	1.17960E-002	0.00000E+000	8	...........	1366.88
	148	2.98	2.16962E-002	3.07318E-006	0.00000E+000	2.17934E-002	0.00000E+000	8	...........	1366.88
	149	3	3.17008E-002	3.06486E-006	0.00000E+000	3.17908E-002	0.00000E+000	8	...........	1366.88
	150	3.02	4.17018E-002	3.06625E-006	0.00000E+000	4.17883E-002	0.00000E+000	8	...........	1366.88
	151	3.04	5.16944E-002	3.06855E-006	0.00000E+000	5.17857E-002	0.00000E+000	8	...........	1366.88
	152	3.06	6.16763E-002	3.07876E-006	0.00000E+000	6.17832E-002	0.00000E+000	8	...........	1366.88
	153	3.08	7.16968E-002	3.09059E-006	0.00000E+000	7.17806E-002	0.00000E+000	8	...........	1366.88
	154	3.1	8.16910E-002	3.10701E-006	0.00000E+000	8.17780E-002	0.00000E+000	8	...........	1366.88
	155	3.12	9.16836E-002	3.12650E-006	0.00000E+000	9.17755E-002	0.00000E+000	8	...........	1366.88
	156	3.14	1.01693E-001	3.14897E-006	0.00000E+000	1.01773E-001	0.00000E+000	8	...........	1366.88
	157	3.16	1.11681E-001	3.17762E-006	0.00000E+000	1.11770E-001	0.00000E+000	8	...........	1366.88
	158	3.18	1.21696E-001	3.20625E-006	0.00000E+000	1.21768E-001	0.00000E+000	8	...........	1366.88
	159	3.2	1.31689E-001	3.23726E-006	0.00000E+000	1.31765E-001	0.00000E+000	8	...........	1366.88
	160	3.22	1.41689E-001	3.27639E-006	0.00000E+000	1.41763E-001	0.00000E+000	8	...........	1366.88
	161	3.24	1.51673E-001	3.32281E-006	0.00000E+000	1.51760E-001	0.00000E+000	8	...........	1366.88
	162	3.26	1.61664E-001	3.38534E-006	0.00000E+000	1.61758E-001	0.00000E+000	8	...........	1366.88
	163	3.28	1.71659E-001	3.45978E-006	0.00000E+000	1.71755E-001	0.00000E+000	8	...........	1366.88
	164	3.3	1.81713E-001	3.56867E-006	0.00000E+000	1.81802E-001	0.00000E+000	8	...........	1366.88
	165	3.32	1.91717E-001	3.67266E-006	0.00000E+000	1.91800E-001	0.00000E+000	8	...........	1366.88
	166	3.34	2.01696E-001	3.81878E-006	0.00000E+000	2.01797E-001	0.00000E+000	8	...........	1366.88
	167	3.36	2.11698E-001	3.99675E-006	0.00000E+000	2.11795E-001	0.00000E+000	8	...........	1366.88
	168	3.38	2.21703E-001	4.19341E-006	0.00000E+000	2.21792E-001	0.00000E+000	8	...........	1366.88
	169	3.4	2.31721E-001	4.38478E-006	0.00000E+000	2.31790E-001	0.00000E+000	8	...........	1366.88
	170	3.42	2.41707E-001	4.53443E-006	0.00000E+000	2.41787E-001	0.00000E+000	8	...........	1366.84
	171	3.44	2.51705E-001	4.61963E-006	0.00000E+000	2.51785E-001	0.00000E+000	8	...........	1366.79
	172	3.46	2.61709E-001	4.67711E-006	0.00000E+000	2.61782E-001	0.00000E+000	8	...........	1366.79
	173	3.48	2.71713E-001	4.73056E-006	0.00000E+000	2.71779E-001	0.00000E+000	8	...........	1366.79
	174	3.5	2.81715E-001	4.76351E-006	0.00000E+000	2.81777E-001	0.00000E+000	8	...........	1366.79
	175	3.52	2.91721E-001	4.77603E-006	0.00000E+000	2.91774E-001	0.00000E+000	8	...........	1366.79
	176	3.54	3.01717E-001	4.77798E-006	0.00000E+000	3.01772E-001	0.00000E+000	8	...........	1366.79
	177	3.56	3.11710E-001	4.77881E-006	0.00000E+000	3.11769E-001	0.00000E+000	8	...........	1366.79
	178	3.58	3.21702E-001	4.78193E-006	0.00000E+000	3.21767E-001	0.00000E+000	8	...........	1366.79
	179	3.6	3.31670E-001	4.77534E-006	0.00000E+000	3.31764E-001	0.00000E+000	8	...........	1366.79
	180	3.62	3.41672E-001	4.76904E-006	0.00000E+000	3.41761E-001	0.00000E+000	8	...........	1366.79
	181	3.64	3.51676E-001	4.75307E-006	0.00000E+000	3.51759E-001	0.00000E+000	8	...........	1366.79
	182	3.66	3.61680E-001	4.73611E-006	0.00000E+000	3.61756E-001	0.00000E+000	8	...........	1366.79
	183	3.68	3.71699E-001	4.72284E-006	0.00000E+000	3.71754E-001	0.00000E+000	8	...........	1366.79
	184	3.7	3.81723E-001	4.73431E-006	0.00000E+000	3.81801E-001	0.00000E+000	8	...........	1366.79
	185	3.72	3.91734E-001	4.72547E-006	0.00000E+000	3.91799E-001	0.00000E+000	8	...........	1366.79
	186	3.74	4.01721E-001	4.72975E-006	0.00000E+000	4.01796E-001	0.00000E+000	8	...........	1366.79
	187	3.76	4.11717E-001	4.70811E-006	0.00000E+000	4.11794E-001	0.00000E+000	8	...........	1366.79
	188	3.78	4.21726E-001	4.66111E-006	0.00000E+000	4.21791E-001	0.00000E+000	8	...........	1366.79
	189	3.8	4.31723E-001	4.60670E-006	0.00000E+000	4.31788E-001	0.00000E+000	8	...........	1366.79
	190	3.82	4.41734E-001	4.54799E-006	0.00000E+000	4.41786E-001	0.00000E+000	8	...........	1366.79
	191	3.84	4.51733E-001	4.49048E-006	0.00000E+000	4.51783E-001	0.00000E+000	8	...........	1366.79
	192	3.86	4.61732E-001	4.43006E-006	0.00000E+000	4.61781E-001	0.00000E+000	8	...........	1366.79
	193	3.88	4.71709E-001	4.36892E-006	0.00000E+000	4.71778E-001	0.00000E+000	8	...........	1366.79
	194	3.9	4.81714E-001	4.30857E-006	0.00000E+000	4.81776E-001	0.00000E+000	8	...........	1366.79
	195	3.92	4.91724E-001	4.24980E-006	0.00000E+000	4.91773E-001	0.00000E+000	8	...........	1366.79
	196	3.94	5.01731E-001	4.18809E-006	0.00000E+000	5.01770E-001	0.00000E+000	8	...........	1366.79
	197	3.96	5.11733E-001	4.12777E-006	0.00000E+000	5.11768E-001	0.00000E+000	8	...........	1366.79
	198	3.98	5.21712E-001	4.07741E-006	0.00000E+000	5.21765E-001	0.00000E+000	8	...........	1366.79
	199	4	5.31723E-001	4.02873E-006	0.00000E+000	5.31763E-001	0.00000E+000	8	...........	1366.79
	200	4.02	5.41710E-001	3.97916E-006	0.00000E+000	5.41760E-001	0.00000E+000	8	...........	1366.79
	201	4.04	5.51721E-001	3.93671E-006	0.00000E+000	5.51758E-001	0.00000E+000	8	...........	1366.79
	202	4.06	5.61692E-001	3.89701E-006	0.00000E+000	5.61755E-001	0.00000E+000	8	...........	1366.79
	203	4.08	5.71741E-001	3.87636E-006	0.00000E+000	5.71803E-001	0.00000E+000	8	...........	1366.79
	204	4.1	5.81739E-001	3.83106E-006	0.00000E+000	5.81800E-001	0.00000E+000	8	...........	1366.79
	205	4.12	5.91749E-001	3.80067E-006	0.00000E+000	5.91797E-001	0.00000E+000	8	...........	1366.79
	206	4.14	6.01738E-001	3.77060E-006	0.00000E+000	6.01795E-001	0.00000E+000	8	...........	1366.79
	207	4.16	6.11731E-001	3.74427E-006	0.00000E+000	6.11792E-001	0.00000E+000	8	...........	1366.79
	208	4.18	6.21731E-001	3.71939E-006	0.00000E+000	6.21790E-001	0.00000E+000	8	...........	1366.79
	209	4.2	6.31735E-001	3.69048E-006	0.00000E+000	6.31787E-001	0.00000E+000	8	...........	1366.79
	210	4.22	6.41731E-001	3.65884E-006	0.00000E+000	6.41785E-001	0.00000E+000	8	...........	1366.79
	211	4.24	6.51725E-001	3.62130E-006	0.00000E+000	6.51782E-001	0.00000E+000	8	...........	1366.79
	212	4.26	6.61726E-001	3.57680E-006	0.00000E+000	6.61780E-001	0.00000E+000	8	...........	1366.79
	213	4.28	6.71749E-001	3.52988E-006	0.00000E+000	6.71777E-001	0.00000E+000	8	...........	1366.79
	214	4.3	6.81743E-001	3.47963E-006	0.00000E+000	6.81774E-001	0.00000E+000	8	...........	1366.79
	215	4.32	6.91747E-001	3.43416E-006	0.00000E+000	6.91772E-001	0.00000E+000	8	...........	1366.79
	216	4.34	7.01733E-001	3.39639E-006	0.00000E+000	7.01769E-001	0.00000E+000	8	...........	1366.79
	217	4.36	7.11743E-001	3.36940E-006	0.00000E+000	7.11767E-001	0.00000E+000	8	...........	1366.79
	218	4.38	7.21729E-001	3.35210E-006	0.00000E+000	7.21764E-001	0.00000E+000	8	...........	1366.79
	219	4.4	7.31740E-001	3.36046E-006	0.00000E+000	7.31762E-001	0.00000E+000	8	...........	1366.79
	220	4.42	7.41707E-001	3.38781E-006	0.00000E+000	7.41759E-001	0.00000E+000	8	...........	1366.84
	221	4.44	7.51719E-001	3.44924E-006	0.00000E+000	7.51757E-001	0.00000E+000	8	...........	1366.88
	222	4.46	7.61724E-001	3.54874E-006	0.00000E+000	7.61754E-001	0.00000E+000	8	...........	1366.88
	223	4.48	7.71779E-001	3.72234E-006	0.00000E+000	7.71801E-001	0.00000E+000	8	...........	1366.88
	224	4.5	7.81787E-001	3.95720E-006	0.00000E+000	7.81799E-001	0.00000E+000	8	...........	1366.88
	225	4.52	7.91771E-001	4.28546E-006	0.00000E+000	7.91796E-001	0.00000E+000	8	...........	1366.88
	226	4.54	8.01774E-001	4.73979E-006	0.00000E+000	8.01794E-001	0.00000E+000	8	...........	1366.88
CURVE2	TABLE
	Pt	T	Vf	Im	Vu	Sig	Ach	IERange	Over	Temp
	#	s	V vs. Ref.	A	V	V	V	#	bits	deg C
	227	4.56	7.90232E-001	2.00249E-007	0.00000E+000	7.89997E-001	0.00000E+000	8	...........	1366.88
	228	4.58	7.80201E-001	-3.74193E-007	0.00000E+000	7.79999E-001	0.00000E+000	8	...........	1366.88
	229	4.6	7.70227E-001	-8.54779E-007	0.00000E+000	7.70002E-001	0.00000E+000	8	...........	1366.88
	230	4.62	7.60219E-001	-1.17439E-006	0.00000E+000	7.60004E-001	0.00000E+000	8	...........	1366.88
	231	4.64	7.50216E-001	-1.40290E-006	0.00000E+000	7.50007E-001	0.00000E+000	8	...........	1366.88
	232	4.66	7.40208E-001	-1.57847E-006	0.00000E+000	7.40010E-001	0.00000E+000	8	...........	1366.88
	233	4.68	7.30235E-001	-1.72577E-006	0.00000E+000	7.30012E-001	0.00000E+000	8	...........	1366.88
	234	4.7	7.20219E-001	-1.85664E-006	0.00000E+000	7.20015E-001	0.00000E+000	8	...........	1366.88
	235	4.72	7.10239E-001	-1.97492E-006	0.00000E+000	7.10017E-001	0.00000E+000	8	...........	1366.88
	236	4.74	7.00221E-001	-2.09236E-006	0.00000E+000	7.00020E-001	0.00000E+000	8	...........	1366.88
	237	4.76	6.90220E-001	-2.20278E-006	0.00000E+000	6.90022E-001	0.00000E+000	8	...........	1366.88
	238	4.78	6.80246E-001	-2.31223E-006	0.00000E+000	6.80025E-001	0.00000E+000	8	...........	1366.88
	239	4.8	6.70189E-001	-2.42829E-006	0.00000E+000	6.69977E-001	0.00000E+000	8	...........	1366.88
	240	4.82	6.60193E-001	-2.52159E-006	0.00000E+000	6.59980E-001	0.00000E+000	8	...........	1366.88
	241	4.84	6.50192E-001	-2.61563E-006	0.00000E+000	6.49983E-001	0.00000E+000	8	...........	1366.88
	242	4.86	6.40190E-001	-2.70128E-006	0.00000E+000	6.39985E-001	0.00000E+000	8	...........	1366.88
	243	4.88	6.30194E-001	-2.76889E-006	0.00000E+000	6.29988E-001	0.00000E+000	8	...........	1366.88
	244	4.9	6.20187E-001	-2.82845E-006	0.00000E+000	6.19990E-001	0.00000E+000	8	...........	1366.88
	245	4.92	6.10183E-001	-2.88238E-006	0.00000E+000	6.09993E-001	0.00000E+000	8	...........	1366.88
	246	4.94	6.00180E-001	-2.93500E-006	0.00000E+000	5.99995E-001	0.00000E+000	8	...........	1366.88
	247	4.96	5.90208E-001	-2.98914E-006	0.00000E+000	5.89998E-001	0.00000E+000	8	...........	1366.88
	248	4.98	5.80207E-001	-3.04703E-006	0.00000E+000	5.80001E-001	0.00000E+000	8	...........	1366.88
	249	5	5.70205E-001	-3.10738E-006	0.00000E+000	5.70003E-001	0.00000E+000	8	...........	1366.88
	250	5.02	5.60191E-001	-3.16574E-006	0.00000E+000	5.60006E-001	0.00000E+000	8	...........	1366.88
	251	5.04	5.50201E-001	-3.22942E-006	0.00000E+000	5.50008E-001	0.00000E+000	8	...........	1366.88
	252	5.06	5.40200E-001	-3.29579E-006	0.00000E+000	5.40011E-001	0.00000E+000	8	...........	1366.88
	253	5.08	5.30194E-001	-3.36647E-006	0.00000E+000	5.30013E-001	0.00000E+000	8	...........	1366.88
	254	5.1	5.20193E-001	-3.44185E-006	0.00000E+000	5.20016E-001	0.00000E+000	8	...........	1366.88
	255	5.12	5.10184E-001	-3.52089E-006	0.00000E+000	5.10018E-001	0.00000E+000	8	...........	1366.88
	256	5.14	5.00212E-001	-3.59799E-006	0.00000E+000	5.00021E-001	0.00000E+000	8	...........	1366.88
	257	5.16	4.90224E-001	-3.68764E-006	0.00000E+000	4.90024E-001	0.00000E+000	8	...........	1366.88
	258	5.18	4.80159E-001	-3.78956E-006	0.00000E+000	4.79976E-001	0.00000E+000	8	...........	1366.88
	259	5.2	4.70135E-001	-3.86418E-006	0.00000E+000	4.69979E-001	0.00000E+000	8	...........	1366.88
	260	5.22	4.60139E-001	-3.95484E-006	0.00000E+000	4.59981E-001	0.00000E+000	8	...........	1366.88
	261	5.24	4.50154E-001	-4.04295E-006	0.00000E+000	4.49984E-001	0.00000E+000	8	...........	1366.88
	262	5.26	4.40187E-001	-4.13546E-006	0.00000E+000	4.39986E-001	0.00000E+000	8	...........	1366.88
	263	5.28	4.30159E-001	-4.21740E-006	0.00000E+000	4.29989E-001	0.00000E+000	8	...........	1366.88
	264	5.3	4.20147E-001	-4.30150E-006	0.00000E+000	4.19991E-001	0.00000E+000	8	...........	1366.88
	265	5.32	4.10153E-001	-4.38232E-006	0.00000E+000	4.09994E-001	0.00000E+000	8	...........	1366.88
	266	5.34	4.00155E-001	-4.45523E-006	0.00000E+000	3.99997E-001	0.00000E+000	8	...........	1366.88
	267	5.36	3.90161E-001	-4.52624E-006	0.00000E+000	3.89999E-001	0.00000E+000	8	...........	1366.88
	268	5.38	3.80156E-001	-4.58261E-006	0.00000E+000	3.80002E-001	0.00000E+000	8	...........	1366.88
	269	5.4	3.70161E-001	-4.60935E-006	0.00000E+000	3.70004E-001	0.00000E+000	8	...........	1366.88
	270	5.42	3.60165E-001	-4.59550E-006	0.00000E+000	3.60007E-001	0.00000E+000	8	...........	1367.03
	271	5.44	3.50169E-001	-4.56971E-006	0.00000E+000	3.50009E-001	0.00000E+000	8	...........	1367.14
	272	5.46	3.40164E-001	-4.55886E-006	0.00000E+000	3.40012E-001	0.00000E+000	8	...........	1367.14
	273	5.48	3.30168E-001	-4.55476E-006	0.00000E+000	3.30014E-001	0.00000E+000	8	...........	1367.14
	274	5.5	3.20186E-001	-4.55293E-006	0.00000E+000	3.20017E-001	0.00000E+000	8	...........	1367.14
	275	5.52	3.10184E-001	-4.54549E-006	0.00000E+000	3.10020E-001	0.00000E+000	8	...........	1367.14
	276	5.54	3.00167E-001	-4.53162E-006	0.00000E+000	3.00022E-001	0.00000E+000	8	...........	1367.14
	277	5.56	2.90173E-001	-4.51894E-006	0.00000E+000	2.90025E-001	0.00000E+000	8	...........	1367.14
	278	5.58	2.80119E-001	-4.51315E-006	0.00000E+000	2.79977E-001	0.00000E+000	8	...........	1367.14
	279	5.6	2.70141E-001	-4.46530E-006	0.00000E+000	2.69980E-001	0.00000E+000	8	...........	1367.14
	280	5.62	2.60148E-001	-4.42930E-006	0.00000E+000	2.59982E-001	0.00000E+000	8	...........	1367.14
	281	5.64	2.50130E-001	-4.39340E-006	0.00000E+000	2.49985E-001	0.00000E+000	8	...........	1367.14
	282	5.66	2.40129E-001	-4.37479E-006	0.00000E+000	2.39988E-001	0.00000E+000	8	...........	1367.14
	283	5.68	2.30148E-001	-4.37827E-006	0.00000E+000	2.29990E-001	0.00000E+000	8	...........	1367.14
	284	5.7	2.20129E-001	-4.35474E-006	0.00000E+000	2.19993E-001	0.00000E+000	8	...........	1367.14
	285	5.72	2.10135E-001	-4.26726E-006	0.00000E+000	2.09995E-001	0.00000E+000	8	...........	1367.14
	286	5.74	2.00132E-001	-4.12625E-006	0.00000E+000	1.99998E-001	0.00000E+000	8	...........	1367.14
	287	5.76	1.90135E-001	-3.97995E-006	0.00000E+000	1.90000E-001	0.00000E+000	8	...........	1367.14
	288	5.78	1.80144E-001	-3.84449E-006	0.00000E+000	1.80003E-001	0.00000E+000	8	...........	1367.14
	289	5.8	1.70141E-001	-3.71618E-006	0.00000E+000	1.70005E-001	0.00000E+000	8	...........	1367.14
	290	5.82	1.60145E-001	-3.59431E-006	0.00000E+000	1.60008E-001	0.00000E+000	8	...........	1367.14
	291	5.84	1.50148E-001	-3.49268E-006	0.00000E+000	1.50011E-001	0.00000E+000	8	...........	1367.14
	292	5.86	1.40144E-001	-3.40994E-006	0.00000E+000	1.40013E-001	0.00000E+000	8	...........	1367.14
	293	5.88	1.30165E-001	-3.34451E-006	0.00000E+000	1.30016E-001	0.00000E+000	8	...........	1367.14
	294	5.9	1.20167E-001	-3.29049E-006	0.00000E+000	1.20018E-001	0.00000E+000	8	...........	1367.14
	295	5.92	1.10170E-001	-3.24820E-006	0.00000E+000	1.10021E-001	0.00000E+000	8	...........	1367.14
	296	5.94	1.00155E-001	-3.21469E-006	0.00000E+000	1.00023E-001	0.00000E+000	8	...........	1367.14
	297	5.96	9.01220E-002	-3.19598E-006	0.00000E+000	8.99759E-002	0.00000E+000	8	...........	1367.14
	298	5.98	8.01219E-002	-3.16454E-006	0.00000E+000	7.99785E-002	0.00000E+000	8	...........	1367.14
	299	6	7.01321E-002	-3.14797E-006	0.00000E+000	6.99811E-002	0.00000E+000	8	...........	1367.14
	300	6.02	6.01186E-002	-3.13739E-006	0.00000E+000	5.99836E-002	0.00000E+000	8	...........	1367.14
	301	6.04	5.01309E-002	-3.13232E-006	0.00000E+000	4.99862E-002	0.00000E+000	8	...........	1367.14
	302	6.06	4.01319E-002	-3.13049E-006	0.00000E+000	3.99887E-002	0.00000E+000	8	...........	1367.14
	303	6.08	3.01385E-002	-3.13584E-006	0.00000E+000	2.99913E-002	0.00000E+000	8	...........	1367.14
	304	6.1	2.01229E-002	-3.14646E-006	0.00000E+000	1.99939E-002	0.00000E+000	8	...........	1367.14
	305	6.12	1.01145E-002	-3.16397E-006	0.00000E+000	9.99641E-003	0.00000E+000	8	...........	1367.14
	306	6.14	1.31235E-004	-3.18982E-006	0.00000E+000	-1.02818E-006	0.00000E+000	8	...........	1367.14
	307	6.16	-9.89187E-003	-3.21899E-006	0.00000E+000	-9.99847E-003	0.00000E+000	8	...........	1367.14
	308	6.18	-1.98990E-002	-3.25064E-006	0.00000E+000	-1.99959E-002	0.00000E+000	8	...........	1367.14
	309	6.2	-2.99016E-002	-3.27129E-006	0.00000E+000	-2.99934E-002	0.00000E+000	8	...........	1367.14
	310	6.22	-3.98980E-002	-3.27946E-006	0.00000E+000	-3.99908E-002	0.00000E+000	8	...........	1367.14
	311	6.24	-4.98668E-002	-3.27728E-006	0.00000E+000	-4.99882E-002	0.00000E+000	8	...........	1367.14
	312	6.26	-5.98733E-002	-3.27647E-006	0.00000E+000	-5.99857E-002	0.00000E+000	8	...........	1367.14
	313	6.28	-6.98575E-002	-3.28313E-006	0.00000E+000	-6.99831E-002	0.00000E+000	8	...........	1367.14
	314	6.3	-7.98706E-002	-3.29476E-006	0.00000E+000	-7.99806E-002	0.00000E+000	8	...........	1367.14
	315	6.32	-8.98691E-002	-3.31461E-006	0.00000E+000	-8.99780E-002	0.00000E+000	8	...........	1367.14
	316	6.34	-9.98572E-002	-3.33775E-006	0.00000E+000	-9.99754E-002	0.00000E+000	8	...........	1367.14
	317	6.36	-1.09900E-001	-3.37627E-006	0.00000E+000	-1.10023E-001	0.00000E+000	8	...........	1367.14
	318	6.38	-1.19907E-001	-3.40424E-006	0.00000E+000	-1.20020E-001	0.00000E+000	8	...........	1367.14
	319	6.4	-1.29910E-001	-3.44068E-006	0.00000E+000	-1.30018E-001	0.00000E+000	8	...........	1367.14
	320	6.42	-1.39882E-001	-3.48029E-006	0.00000E+000	-1.40015E-001	0.00000E+000	8	...........	1367.14
	321	6.44	-1.49901E-001	-3.52363E-006	0.00000E+000	-1.50013E-001	0.00000E+000	8	...........	1367.14
	322	6.46	-1.59902E-001	-3.56894E-006	0.00000E+000	-1.60010E-001	0.00000E+000	8	...........	1367.14
	323	6.48	-1.69895E-001	-3.61505E-006	0.00000E+000	-1.70007E-001	0.00000E+000	8	...........	1367.14
	324	6.5	-1.79910E-001	-3.65923E-006	0.00000E+000	-1.80005E-001	0.00000E+000	8	...........	1367.14
	325	6.52	-1.89881E-001	-3.69910E-006	0.00000E+000	-1.90002E-001	0.00000E+000	8	...........	1367.14
	326	6.54	-1.99880E-001	-3.74064E-006	0.00000E+000	-2.00000E-001	0.00000E+000	8	...........	1367.14
	327	6.56	-2.09882E-001	-3.77279E-006	0.00000E+000	-2.09997E-001	0.00000E+000	8	...........	1367.14
	328	6.58	-2.19897E-001	-3.79900E-006	0.00000E+000	-2.19995E-001	0.00000E+000	8	...........	1367.14
	329	6.6	-2.29884E-001	-3.81892E-006	0.00000E+000	-2.29992E-001	0.00000E+000	8	...........	1367.14
	330	6.62	-2.39880E-001	-3.82396E-006	0.00000E+000	-2.39990E-001	0.00000E+000	8	...........	1367.14
	331	6.64	-2.49874E-001	-3.82612E-006	0.00000E+000	-2.49987E-001	0.00000E+000	8	...........	1367.14
	332	6.66	-2.59885E-001	-3.81838E-006	0.00000E+000	-2.59984E-001	0.00000E+000	8	...........	1367.14
	333	6.68	-2.69880E-001	-3.80273E-006	0.00000E+000	-2.69982E-001	0.00000E+000	8	...........	1367.14
	334	6.7	-2.79874E-001	-3.78105E-006	0.00000E+000	-2.79979E-001	0.00000E+000	8	...........	1367.14
	335	6.72	-2.89875E-001	-3.75417E-006	0.00000E+000	-2.89977E-001	0.00000E+000	8	...........	1367.14
	336	6.74	-2.99928E-001	-3.73697E-006	0.00000E+000	-3.00024E-001	0.00000E+000	8	...........	1367.14
	337	6.76	-3.09931E-001	-3.68600E-006	0.00000E+000	-3.10022E-001	0.00000E+000	8	...........	1367.14
	338	6.78	-3.19906E-001	-3.64753E-006	0.00000E+000	-3.20019E-001	0.00000E+000	8	...........	1367.14
	339	6.8	-3.29900E-001	-3.60390E-006	0.00000E+000	-3.30017E-001	0.00000E+000	8	...........	1367.14
[...]
	640	12.82	-5.39917E-001	-2.41026E-006	0.00000E+000	-5.40013E-001	0.00000E+000	8	...........	1366.79
	641	12.84	-5.49908E-001	-2.36798E-006	0.00000E+000	-5.50010E-001	0.00000E+000	8	...........	1366.79
	642	12.86	-5.59906E-001	-2.33043E-006	0.00000E+000	-5.60008E-001	0.00000E+000	8	...........	1366.79
	643	12.88	-5.69904E-001	-2.29593E-006	0.00000E+000	-5.70005E-001	0.00000E+000	8	...........	1366.79
	644	12.9	-5.79920E-001	-2.26473E-006	0.00000E+000	-5.80003E-001	0.00000E+000	8	...........	1366.79
	645	12.92	-5.89924E-001	-2.23818E-006	0.00000E+000	-5.90000E-001	0.00000E+000	8	...........	1366.79
	646	12.94	-5.99908E-001	-2.21390E-006	0.00000E+000	-5.99997E-001	0.00000E+000	8	...........	1366.79
	647	12.96	-5.90149E-001	-9.14244E-009	0.00000E+000	-5.90000E-001	0.00000E+000	8	...........	1366.79
	648	12.98	-5.80146E-001	2.02969E-007	0.00000E+000	-5.80003E-001	0.00000E+000	8	...........	1366.79
	649	13	-5.70132E-001	3.53762E-007	0.00000E+000	-5.70005E-001	0.00000E+000	8	...........	1366.79
	650	13.02	-5.60131E-001	4.75866E-007	0.00000E+000	-5.60008E-001	0.00000E+000	8	...........	1366.79
	651	13.04	-5.50131E-001	5.81198E-007	0.00000E+000	-5.50010E-001	0.00000E+000	8	...........	1366.79
	652	13.06	-5.40145E-001	6.76879E-007	0.00000E+000	-5.40013E-001	0.00000E+000	8	...........	1366.79
	653	13.08	-5.30133E-001	7.68073E-007	0.00000E+000	-5.30015E-001	0.00000E+000	8	...........	1366.79
	654	13.1	-5.20133E-001	8.53825E-007	0.00000E+000	-5.20018E-001	0.00000E+000	8	...........	1366.79
	655	13.12	-5.10141E-001	9.34352E-007	0.00000E+000	-5.10020E-001	0.00000E+000	8	...........	1366.79
	656	13.14	-5.00168E-001	1.01803E-006	0.00000E+000	-5.00023E-001	0.00000E+000	8	...........	1366.79
	657	13.16	-4.90115E-001	1.10628E-006	0.00000E+000	-4.89976E-001	0.00000E+000	8	...........	1366.79
	658	13.18	-4.80116E-001	1.17874E-006	0.00000E+000	-4.79978E-001	0.00000E+000	8	...........	1366.79
	659	13.2	-4.70120E-001	1.25645E-006	0.00000E+000	-4.69981E-001	0.00000E+000	8	...........	1366.79
	660	13.22	-4.60122E-001	1.33320E-006	0.00000E+000	-4.59983E-001	0.00000E+000	8	...........	1366.79
	661	13.24	-4.50127E-001	1.41295E-006	0.00000E+000	-4.49986E-001	0.00000E+000	8	...........	1366.79
	662	13.26	-4.40132E-001	1.49016E-006	0.00000E+000	-4.39988E-001	0.00000E+000	8	...........	1366.79
	663	13.28	-4.30117E-001	1.56791E-006	0.00000E+000	-4.29991E-001	0.00000E+000	8	...........	1366.79
	664	13.3	-4.20129E-001	1.64410E-006	0.00000E+000	-4.19994E-001	0.00000E+000	8	...........	1366.79
	665	13.32	-4.10127E-001	1.72116E-006	0.00000E+000	-4.09996E-001	0.00000E+000	8	...........	1366.79
	666	13.34	-4.00124E-001	1.79911E-006	0.00000E+000	-3.99999E-001	0.00000E+000	8	...........	1366.79
	667	13.36	-3.90110E-001	1.87754E-006	0.00000E+000	-3.90001E-001	0.00000E+000	8	...........	1366.79
	668	13.38	-3.80118E-001	1.95153E-006	0.00000E+000	-3.80004E-001	0.00000E+000	8	...........	1366.79
	669	13.4	-3.70123E-001	2.02649E-006	0.00000E+000	-3.70006E-001	0.00000E+000	8	...........	1366.79
	670	13.42	-3.60147E-001	2.10182E-006	0.00000E+000	-3.60009E-001	0.00000E+000	8	...........	1366.79
	671	13.44	-3.50140E-001	2.17583E-006	0.00000E+000	-3.50011E-001	0.00000E+000	8	...........	1366.79
	672	13.46	-3.40147E-001	2.24567E-006	0.00000E+000	-3.40014E-001	0.00000E+000	8	...........	1366.79
	673	13.48	-3.30120E-001	2.31487E-006	0.00000E+000	-3.30017E-001	0.00000E+000	8	...........	1366.79
	674	13.5	-3.20121E-001	2.38044E-006	0.00000E+000	-3.20019E-001	0.00000E+000	8	...........	1366.79
	675	13.52	-3.10146E-001	2.44368E-006	0.00000E+000	-3.10022E-001	0.00000E+000	8	...........	1366.79
	676	13.54	-3.00145E-001	2.50350E-006	0.00000E+000	-3.00024E-001	0.00000E+000	8	...........	1366.79
	677	13.56	-2.90090E-001	2.57446E-006	0.00000E+000	-2.89977E-001	0.00000E+000	8	...........	1366.79
	678	13.58	-2.80095E-001	2.61767E-006	0.00000E+000	-2.79979E-001	0.00000E+000	8	...........	1366.79
	679	13.6	-2.70106E-001	2.66765E-006	0.00000E+000	-2.69982E-001	0.00000E+000	8	...........	1366.79
	680	13.62	-2.60113E-001	2.71655E-006	0.00000E+000	-2.59984E-001	0.00000E+000	8	...........	1366.79
	681	13.64	-2.50109E-001	2.76184E-006	0.00000E+000	-2.49987E-001	0.00000E+000	8	...........	1366.79
	682	13.66	-2.40109E-001	2.80397E-006	0.00000E+000	-2.39990E-001	0.00000E+000	8	...........	1366.79
	683	13.68	-2.30110E-001	2.84263E-006	0.00000E+000	-2.29992E-001	0.00000E+000	8	...........	1366.79
	684	13.7	-2.20128E-001	2.88143E-006	0.00000E+000	-2.19995E-001	0.00000E+000	8	...........	1366.79
	685	13.72	-2.10122E-001	2.91278E-006	0.00000E+000	-2.09997E-001	0.00000E+000	8	...........	1366.79
	686	13.74	-2.00119E-001	2.94388E-006	0.00000E+000	-2.00000E-001	0.00000E+000	8	...........	1366.79
	687	13.76	-1.90125E-001	2.97028E-006	0.00000E+000	-1.90002E-001	0.00000E+000	8	...........	1366.79
	688	13.78	-1.80149E-001	2.99186E-006	0.00000E+000	-1.80005E-001	0.00000E+000	8	...........	1366.79
	689	13.8	-1.70123E-001	3.01176E-006	0.00000E+000	-1.70007E-001	0.00000E+000	8	...........	1366.79
	690	13.82	-1.60119E-001	3.02535E-006	0.00000E+000	-1.60010E-001	0.00000E+000	8	...........	1366.79
	691	13.84	-1.50130E-001	3.03365E-006	0.00000E+000	-1.50013E-001	0.00000E+000	8	...........	1366.79
	692	13.86	-1.40122E-001	3.03570E-006	0.00000E+000	-1.40015E-001	0.00000E+000	8	...........	1366.79
	693	13.88	-1.30140E-001	3.03277E-006	0.00000E+000	-1.30018E-001	0.00000E+000	8	...........	1366.79
	694	13.9	-1.20127E-001	3.02642E-006	0.00000E+000	-1.20020E-001	0.00000E+000	8	...........	1366.79
	695	13.92	-1.10128E-001	3.01580E-006	0.00000E+000	-1.10023E-001	0.00000E+000	8	...........	1366.79
	696	13.94	-1.00086E-001	3.01352E-006	0.00000E+000	-9.99754E-002	0.00000E+000	8	...........	1366.79
	697	13.96	-9.00834E-002	2.99357E-006	0.00000E+000	-8.99780E-002	0.00000E+000	8	...........	1366.79
	698	13.98	-8.00966E-002	2.98638E-006	0.00000E+000	-7.99806E-002	0.00000E+000	8	...........	1366.79
	699	14	-7.00823E-002	2.98268E-006	0.00000E+000	-6.99831E-002	0.00000E+000	8	...........	1366.79
	700	14.02	-6.00848E-002	2.98276E-006	0.00000E+000	-5.99857E-002	0.00000E+000	8	...........	1366.79
	701	14.04	-5.00786E-002	2.99026E-006	0.00000E+000	-4.99882E-002	0.00000E+000	8	...........	1366.79
	702	14.06	-4.01114E-002	3.00359E-006	0.00000E+000	-3.99908E-002	0.00000E+000	8	...........	1366.79
	703	14.08	-3.01138E-002	3.02759E-006	0.00000E+000	-2.99934E-002	0.00000E+000	8	...........	1366.79
	704	14.1	-2.01051E-002	3.05713E-006	0.00000E+000	-1.99959E-002	0.00000E+000	8	...........	1366.79
	705	14.12	-1.01048E-002	3.08319E-006	0.00000E+000	-9.99847E-003	0.00000E+000	8	...........	1366.79
	706	14.14	-9.11127E-005	3.09457E-006	0.00000E+000	-1.02818E-006	0.00000E+000	8	...........	1366.79
	707	14.16	9.90461E-003	3.09515E-006	0.00000E+000	9.99641E-003	0.00000E+000	8	...........	1366.79
	708	14.18	1.99084E-002	3.08516E-006	0.00000E+000	1.99939E-002	0.00000E+000	8	...........	1366.79
	709	14.2	2.99114E-002	3.07772E-006	0.00000E+000	2.99913E-002	0.00000E+000	8	...........	1366.79
	710	14.22	3.99043E-002	3.07615E-006	0.00000E+000	3.99887E-002	0.00000E+000	8	...........	1366.79
	711	14.24	4.99019E-002	3.07902E-006	0.00000E+000	4.99862E-002	0.00000E+000	8	...........	1366.79
	712	14.26	5.98871E-002	3.08881E-006	0.00000E+000	5.99836E-002	0.00000E+000	8	...........	1366.79
	713	14.28	6.99103E-002	3.10225E-006	0.00000E+000	6.99811E-002	0.00000E+000	8	...........	1366.79
	714	14.3	7.99062E-002	3.11848E-006	0.00000E+000	7.99785E-002	0.00000E+000	8	...........	1366.79
	715	14.32	8.98999E-002	3.13759E-006	0.00000E+000	8.99759E-002	0.00000E+000	8	...........	1366.79
	716	14.34	9.99314E-002	3.17345E-006	0.00000E+000	1.00023E-001	0.00000E+000	8	...........	1366.79
	717	14.36	1.09944E-001	3.18987E-006	0.00000E+000	1.10021E-001	0.00000E+000	8	...........	1366.79
	718	14.38	1.19946E-001	3.21656E-006	0.00000E+000	1.20018E-001	0.00000E+000	8	...........	1366.79
	719	14.4	1.29950E-001	3.24892E-006	0.00000E+000	1.30016E-001	0.00000E+000	8	...........	1366.79
	720	14.42	1.39916E-001	3.28306E-006	0.00000E+000	1.40013E-001	0.00000E+000	8	...........	1366.79
	721	14.44	1.49922E-001	3.33017E-006	0.00000E+000	1.50011E-001	0.00000E+000	8	...........	1366.79
	722	14.46	1.59920E-001	3.38740E-006	0.00000E+000	1.60008E-001	0.00000E+000	8	...........	1366.79
	723	14.48	1.69911E-001	3.45943E-006	0.00000E+000	1.70005E-001	0.00000E+000	8	...........	1366.79
	724	14.5	1.79910E-001	3.54760E-006	0.00000E+000	1.80003E-001	0.00000E+000	8	...........	1366.79
	725	14.52	1.89902E-001	3.65716E-006	0.00000E+000	1.90000E-001	0.00000E+000	8	...........	1366.79
	726	14.54	1.99903E-001	3.79593E-006	0.00000E+000	1.99998E-001	0.00000E+000	8	...........	1366.79
	727	14.56	2.09895E-001	3.96930E-006	0.00000E+000	2.09995E-001	0.00000E+000	8	...........	1366.79
	728	14.58	2.19896E-001	4.17174E-006	0.00000E+000	2.19993E-001	0.00000E+000	8	...........	1366.79
	729	14.6	2.29921E-001	4.38823E-006	0.00000E+000	2.29990E-001	0.00000E+000	8	...........	1366.79
	730	14.62	2.39901E-001	4.59141E-006	0.00000E+000	2.39988E-001	0.00000E+000	8	...........	1366.79
	731	14.64	2.49896E-001	4.71861E-006	0.00000E+000	2.49985E-001	0.00000E+000	8	...........	1366.79
	732	14.66	2.59895E-001	4.78067E-006	0.00000E+000	2.59982E-001	0.00000E+000	8	...........	1366.79
	733	14.68	2.69899E-001	4.83160E-006	0.00000E+000	2.69980E-001	0.00000E+000	8	...........	1366.79
	734	14.7	2.79894E-001	4.86797E-006	0.00000E+000	2.79977E-001	0.00000E+000	8	...........	1366.79
	735	14.72	2.89949E-001	4.89260E-006	0.00000E+000	2.90025E-001	0.00000E+000	8	...........	1366.79
	736	14.74	2.99947E-001	4.86460E-006	0.00000E+000	3.00022E-001	0.00000E+000	8	...........	1366.79
	737	14.76	3.09958E-001	4.85332E-006	0.00000E+000	3.10020E-001	0.00000E+000	8	...........	1366.79
	738	14.78	3.19955E-001	4.85462E-006	0.00000E+000	3.20017E-001	0.00000E+000	8	...........	1366.79
	739	14.8	3.29929E-001	4.85134E-006	0.00000E+000	3.30014E-001	0.00000E+000	8	...........	1366.79
	740	14.82	3.39942E-001	4.83964E-006	0.00000E+000	3.40012E-001	0.00000E+000	8	...........	1366.79
	741	14.84	3.49955E-001	4.82560E-006	0.00000E+000	3.50009E-001	0.00000E+000	8	...........	1366.79
	742	14.86	3.59946E-001	4.80770E-006	0.00000E+000	3.60007E-001	0.00000E+000	8	...........	1366.79
	743	14.88	3.69932E-001	4.79215E-006	0.00000E+000	3.70004E-001	0.00000E+000	8	...........	1366.79
	744	14.9	3.79923E-001	4.78615E-006	0.00000E+000	3.80002E-001	0.00000E+000	8	...........	1366.79
	745	14.92	3.89936E-001	4.79165E-006	0.00000E+000	3.89999E-001	0.00000E+000	8	...........	1366.79
	746	14.94	3.99941E-001	4.80162E-006	0.00000E+000	3.99997E-001	0.00000E+000	8	...........	1366.79
	747	14.96	4.09949E-001	4.78758E-006	0.00000E+000	4.09994E-001	0.00000E+000	8	...........	1366.79
	748	14.98	4.19933E-001	4.74561E-006	0.00000E+000	4.19991E-001	0.00000E+000	8	...........	1366.79
	749	15	4.29930E-001	4.68220E-006	0.00000E+000	4.29989E-001	0.00000E+000	8	...........	1366.79
	750	15.02	4.39937E-001	4.61738E-006	0.00000E+000	4.39986E-001	0.00000E+000	8	...........	1366.79
	751	15.04	4.49929E-001	4.55404E-006	0.00000E+000	4.49984E-001	0.00000E+000	8	...........	1366.79
	752	15.06	4.59920E-001	4.48632E-006	0.00000E+000	4.59981E-001	0.00000E+000	8	...........	1366.79
	753	15.08	4.69921E-001	4.42055E-006	0.00000E+000	4.69979E-001	0.00000E+000	8	...........	1366.79
	754	15.1	4.79944E-001	4.35128E-006	0.00000E+000	4.79976E-001	0.00000E+000	8	...........	1366.79
	755	15.12	4.89998E-001	4.29773E-006	0.00000E+000	4.90024E-001	0.00000E+000	8	...........	1366.79
	756	15.14	4.99989E-001	4.21576E-006	0.00000E+000	5.00021E-001	0.00000E+000	8	...........	1366.79
	757	15.16	5.09963E-001	4.14468E-006	0.00000E+000	5.10018E-001	0.00000E+000	8	...........	1366.79
	758	15.18	5.19970E-001	4.08660E-006	0.00000E+000	5.20016E-001	0.00000E+000	8	...........	1366.79
	759	15.2	5.29963E-001	4.02810E-006	0.00000E+000	5.30013E-001	0.00000E+000	8	...........	1366.79
	760	15.22	5.39966E-001	3.97215E-006	0.00000E+000	5.40011E-001	0.00000E+000	8	...........	1366.79
	761	15.24	5.49974E-001	3.92139E-006	0.00000E+000	5.50008E-001	0.00000E+000	8	...........	1366.79
	762	15.26	5.59963E-001	3.87435E-006	0.00000E+000	5.60006E-001	0.00000E+000	8	...........	1366.79
	763	15.28	5.69981E-001	3.83241E-006	0.00000E+000	5.70003E-001	0.00000E+000	8	...........	1366.79
	764	15.3	5.79979E-001	3.79268E-006	0.00000E+000	5.80001E-001	0.00000E+000	8	...........	1366.79
	765	15.32	5.89975E-001	3.75596E-006	0.00000E+000	5.89998E-001	0.00000E+000	8	...........	1366.79
	766	15.34	5.99948E-001	3.72169E-006	0.00000E+000	5.99995E-001	0.00000E+000	8	...........	1366.79
	767	15.36	6.09965E-001	3.68931E-006	0.00000E+000	6.09993E-001	0.00000E+000	8	...........	1366.79
	768	15.38	6.19975E-001	3.65693E-006	0.00000E+000	6.19990E-001	0.00000E+000	8	...........	1366.79
	769	15.4	6.29977E-001	3.62586E-006	0.00000E+000	6.29988E-001	0.00000E+000	8	...........	1366.79
	770	15.42	6.39971E-001	3.59313E-006	0.00000E+000	6.39985E-001	0.00000E+000	8	...........	1366.79
	771	15.44	6.49952E-001	3.55893E-006	0.00000E+000	6.49983E-001	0.00000E+000	8	...........	1366.79
	772	15.46	6.59953E-001	3.51110E-006	0.00000E+000	6.59980E-001	0.00000E+000	8	...........	1366.79
	773	15.48	6.69957E-001	3.45754E-006	0.00000E+000	6.69977E-001	0.00000E+000	8	...........	1366.79
	774	15.5	6.80014E-001	3.41422E-006	0.00000E+000	6.80025E-001	0.00000E+000	8	...........	1366.79
	775	15.52	6.89993E-001	3.35726E-006	0.00000E+000	6.90022E-001	0.00000E+000	8	...........	1366.79
	776	15.54	6.99991E-001	3.31458E-006	0.00000E+000	7.00020E-001	0.00000E+000	8	...........	1366.79
	777	15.56	7.10008E-001	3.28269E-006	0.00000E+000	7.10017E-001	0.00000E+000	8	...........	1366.79
	778	15.58	7.19987E-001	3.26034E-006	0.00000E+000	7.20015E-001	0.00000E+000	8	...........	1366.79
	779	15.6	7.30007E-001	3.26032E-006	0.00000E+000	7.30012E-001	0.00000E+000	8	...........	1366.79
	780	15.62	7.39987E-001	3.27891E-006	0.00000E+000	7.40010E-001	0.00000E+000	8	...........	1366.79
	781	15.64	7.50001E-001	3.32858E-006	0.00000E+000	7.50007E-001	0.00000E+000	8	...........	1366.79
	782	15.66	7.59996E-001	3.41531E-006	0.00000E+000	7.60004E-001	0.00000E+000	8	...........	1366.79
	783	15.68	7.69994E-001	3.56026E-006	0.00000E+000	7.70002E-001	0.00000E+000	8	...........	1366.79
	784	15.7	7.79960E-001	3.78278E-006	0.00000E+000	7.79999E-001	0.00000E+000	8	...........	1366.79
	785	15.72	7.89979E-001	4.08982E-006	0.00000E+000	7.89997E-001	0.00000E+000	8	...........	1366.79
	786	15.74	7.99984E-001	4.51507E-006	0.00000E+000	7.99994E-001	0.00000E+000	8	...........	1366.79
CURVE4	TABLE
	Pt	T	Vf	Im	Vu	Sig	Ach	IERange	Over	Temp
	#	s	V vs. Ref.	A	V	V	V	#	bits	deg C
	787	15.76	7.90198E-001	4.33977E-007	0.00000E+000	7.89997E-001	0.00000E+000	8	...........	1366.79
	788	15.78	7.80187E-001	-3.93669E-007	0.00000E+000	7.79999E-001	0.00000E+000	8	...........	1366.79
	789	15.8	7.70209E-001	-8.84221E-007	0.00000E+000	7.70002E-001	0.00000E+000	8	...........	1366.79
	790	15.82	7.60203E-001	-1.20518E-006	0.00000E+000	7.60004E-001	0.00000E+000	8	...........	1366.79
	791	15.84	7.50212E-001	-1.43314E-006	0.00000E+000	7.50007E-001	0.00000E+000	8	...........	1366.79
	792	15.86	7.40204E-001	-1.60846E-006	0.00000E+000	7.40010E-001	0.00000E+000	8	...........	1366.79
	793	15.88	7.30228E-001	-1.75447E-006	0.00000E+000	7.30012E-001	0.00000E+000	8	...........	1366.79
	794	15.9	7.20212E-001	-1.88464E-006	0.00000E+000	7.20015E-001	0.00000E+000	8	...........	1366.79
	795	15.92	7.10230E-001	-2.00156E-006	0.00000E+000	7.10017E-001	0.00000E+000	8	...........	1366.79
	796	15.94	7.00209E-001	-2.11887E-006	0.00000E+000	7.00020E-001	0.00000E+000	8	...........	1366.79
	797	15.96	6.90207E-001	-2.23015E-006	0.00000E+000	6.90022E-001	0.00000E+000	8	...........	1366.79
	798	15.98	6.80231E-001	-2.33952E-006	0.00000E+000	6.80025E-001	0.00000E+000	8	...........	1366.79
	799	16	6.70174E-001	-2.45577E-006	0.00000E+000	6.69977E-001	0.00000E+000	8	...........	1366.79
	800	16.02	6.60175E-001	-2.54919E-006	0.00000E+000	6.59980E-001	0.00000E+000	8	...........	1366.79
	801	16.04	6.50175E-001	-2.64268E-006	0.00000E+000	6.49983E-001	0.00000E+000	8	...........	1366.79
	802	16.06	6.40179E-001	-2.72736E-006	0.00000E+000	6.39985E-001	0.00000E+000	8	...........	1366.79
	803	16.08	6.30186E-001	-2.79603E-006	0.00000E+000	6.29988E-001	0.00000E+000	8	...........	1366.79
	804	16.1	6.20177E-001	-2.85751E-006	0.00000E+000	6.19990E-001	0.00000E+000	8	...........	1366.79
	805	16.12	6.10178E-001	-2.91098E-006	0.00000E+000	6.09993E-001	0.00000E+000	8	...........	1366.79
	806	16.14	6.00160E-001	-2.96525E-006	0.00000E+000	5.99995E-001	0.00000E+000	8	...........	1366.79
	807	16.16	5.90184E-001	-3.01809E-006	0.00000E+000	5.89998E-001	0.00000E+000	8	...........	1366.79
	808	16.18	5.80181E-001	-3.07511E-006	0.00000E+000	5.80001E-001	0.00000E+000	8	...........	1366.79
	809	16.2	5.70185E-001	-3.13536E-006	0.00000E+000	5.70003E-001	0.00000E+000	8	...........	1366.79
	810	16.22	5.60177E-001	-3.19740E-006	0.00000E+000	5.60006E-001	0.00000E+000	8	...........	1366.79
	811	16.24	5.50190E-001	-3.26287E-006	0.00000E+000	5.50008E-001	0.00000E+000	8	...........	1366.79
	812	16.26	5.40189E-001	-3.33042E-006	0.00000E+000	5.40011E-001	0.00000E+000	8	...........	1366.79
	813	16.28	5.30193E-001	-3.40315E-006	0.00000E+000	5.30013E-001	0.00000E+000	8	...........	1366.79
	814	16.3	5.20198E-001	-3.48083E-006	0.00000E+000	5.20016E-001	0.00000E+000	8	...........	1366.79
	815	16.32	5.10187E-001	-3.56035E-006	0.00000E+000	5.10018E-001	0.00000E+000	8	...........	1366.79
	816	16.34	5.00218E-001	-3.64037E-006	0.00000E+000	5.00021E-001	0.00000E+000	8	...........	1366.79
	817	16.36	4.90226E-001	-3.73066E-006	0.00000E+000	4.90024E-001	0.00000E+000	8	...........	1366.79
	818	16.38	4.80172E-001	-3.83736E-006	0.00000E+000	4.79976E-001	0.00000E+000	8	...........	1366.79
	819	16.4	4.70156E-001	-3.91431E-006	0.00000E+000	4.69979E-001	0.00000E+000	8	...........	1366.79
	820	16.42	4.60162E-001	-4.00874E-006	0.00000E+000	4.59981E-001	0.00000E+000	8	...........	1366.79
	821	16.44	4.50168E-001	-4.09783E-006	0.00000E+000	4.49984E-001	0.00000E+000	8	...........	1366.79
	822	16.46	4.40167E-001	-4.19048E-006	0.00000E+000	4.39986E-001	0.00000E+000	8	...........	1366.79
	823	16.48	4.30167E-001	-4.27950E-006	0.00000E+000	4.29989E-001	0.00000E+000	8	...........	1366.79
	824	16.5	4.20167E-001	-4.36755E-006	0.00000E+000	4.19991E-001	0.00000E+000	8	...........	1366.79
	825	16.52	4.10173E-001	-4.45101E-006	0.00000E+000	4.09994E-001	0.00000E+000	8	...........	1366.79
	826	16.54	4.00167E-001	-4.52520E-006	0.00000E+000	3.99997E-001	0.00000E+000	8	...........	1366.79
	827	16.56	3.90171E-001	-4.59915E-006	0.00000E+000	3.89999E-001	0.00000E+000	8	...........	1366.79
	828	16.58	3.80161E-001	-4.65084E-006	0.00000E+000	3.80002E-001	0.00000E+000	8	...........	1366.79
	829	16.6	3.70168E-001	-4.66565E-006	0.00000E+000	3.70004E-001	0.00000E+000	8	...........	1366.79
	830	16.62	3.60173E-001	-4.64020E-006	0.00000E+000	3.60007E-001	0.00000E+000	8	...........	1366.79
	831	16.64	3.50176E-001	-4.61390E-006	0.00000E+000	3.50009E-001	0.00000E+000	8	...........	1366.79
	832	16.66	3.40172E-001	-4.60240E-006	0.00000E+000	3.40012E-001	0.00000E+000	8	...........	1366.79
	833	16.68	3.30166E-001	-4.60003E-006	0.00000E+000	3.30014E-001	0.00000E+000	8	...........	1366.79
	834	16.7	3.20178E-001	-4.59775E-006	0.00000E+000	3.20017E-001	0.00000E+000	8	...........	1366.79
	835	16.72	3.10184E-001	-4.59098E-006	0.00000E+000	3.10020E-001	0.00000E+000	8	...........	1366.79
	836	16.74	3.00178E-001	-4.57534E-006	0.00000E+000	3.00022E-001	0.00000E+000	8	...........	1366.79
	837	16.76	2.90186E-001	-4.56444E-006	0.00000E+000	2.90025E-001	0.00000E+000	8	...........	1366.79
	838	16.78	2.80139E-001	-4.55710E-006	0.00000E+000	2.79977E-001	0.00000E+000	8	...........	1366.79
	839	16.8	2.70141E-001	-4.50736E-006	0.00000E+000	2.69980E-001	0.00000E+000	8	...........	1366.79
	840	16.82	2.60138E-001	-4.47269E-006	0.00000E+000	2.59982E-001	0.00000E+000	8	...........	1366.79