File: Test_Data_Files/20250424_N_CHI105_12,5umAu_E000_PBSargCV50000.DTA
EXPLAIN
TAG	CV
TITLE	LABEL	Cyclic Voltammetry	Test &Identifier
DATE	LABEL	4/24/2025	Date
TIME	LABEL	13:31:45	Time
NOTES	NOTES	3	&Notes...

PSTAT	PSTAT	IFC1010-32247	Potentiostat
VINIT	POTEN	0.00000E+000	T	Initial &E (V)
VLIMIT1	POTEN	-6.00000E-001	F	Scan Limit &1 (V)
VLIMIT2	POTEN	8.00000E-001	F	Scan Limit &2 (V)
VFINAL	POTEN	0.00000E+000	T	Final &E (V)
SCANRATE	QUANT	4.99999E+004	&Scan Rate (mV/s)
STEPSIZE	QUANT	1.00000E+001	St&ep Size (mV)
CYCLES	IQUANT	3	C&ycles (#)
IMODE	SELECTOR	1	I/E Range &Mode
IRANGE	QUANT	1.00000E-005	&Max Current (mA)
AREA	QUANT	1.00000E+000	Electrode &Area (cm^2)
ELECTRODETYPE	SELECTOR	0	Electrode Type
STRIPPING	TOGGLE	F	Used for Stripping
CONDIT	TWOPARAM	F	1.50000E+001	0.00000E+000	Conditionin&g	Time(s)	E(V)
DELAY	TWOPARAM	T	1.50000E+001	0.00000E+000	Init. De&lay	Time(s)	Stab.(mV/s)
EQDELAY	QUANT	0.00000E+000	Equil. &Time (s)
IRCOMP	SELECTOR	0	IRCom&p
PFCOR	QUANT	5.00000E+001	PF Corr. (ohm)
SAMPLINGMODE	SELECTOR	2	Sampling &Mode
OCVCURVE	TABLE	58
	Pt	T	Vf	Vm	Ach	Over	Temp
	#	s	V vs. Ref.	V	V	bits	deg C
	0	0.258333	7.73084E-001	7.73084E-001	0.00000E+000	...........	1367.65
	1	0.516667	7.73085E-001	7.73137E-001	0.00000E+000	...........	1367.65
	2	0.775	7.73090E-001	7.73143E-001	0.00000E+000	...........	1367.65
	3	1.03333	7.73103E-001	7.73152E-001	0.00000E+000	...........	1367.65
	4	1.29167	7.73122E-001	7.73254E-001	0.00000E+000	...........	1367.65
	5	1.55	7.73149E-001	7.73347E-001	0.00000E+000	...........	1367.65
	6	1.80833	7.73192E-001	7.73380E-001	0.00000E+000	...........	1367.65
	7	2.06667	7.73252E-001	7.73515E-001	0.00000E+000	...........	1367.65
	8	2.325	7.73326E-001	7.73693E-001	0.00000E+000	...........	1367.65
	9	2.58333	7.73421E-001	7.73979E-001	0.00000E+000	...........	1367.65
	10	2.84167	7.73553E-001	7.74157E-001	0.00000E+000	...........	1367.65
	11	3.1	7.73726E-001	7.74352E-001	0.00000E+000	...........	1367.65
	12	3.35833	7.73924E-001	7.74505E-001	0.00000E+000	...........	1367.65
	13	3.61667	7.74124E-001	7.74573E-001	0.00000E+000	...........	1367.65
	14	3.875	7.74303E-001	7.74680E-001	0.00000E+000	...........	1367.65
	15	4.13333	7.74451E-001	7.74784E-001	0.00000E+000	...........	1367.65
	16	4.39167	7.74570E-001	7.74821E-001	0.00000E+000	...........	1367.65
	17	4.65	7.74668E-001	7.74833E-001	0.00000E+000	...........	1367.65
	18	4.90833	7.74745E-001	7.74876E-001	0.00000E+000	...........	1367.57
	19	5.16667	7.74799E-001	7.74835E-001	0.00000E+000	...........	1367.57
	20	5.425	7.74831E-001	7.74787E-001	0.00000E+000	...........	1367.57
	21	5.68333	7.74839E-001	7.74743E-001	0.00000E+000	...........	1367.45
	22	5.94167	7.74825E-001	7.74756E-001	0.00000E+000	...........	1367.40
	23	6.2	7.74798E-001	7.74738E-001	0.00000E+000	...........	1367.40
	24	6.45833	7.74773E-001	7.74783E-001	0.00000E+000	...........	1367.40
	25	6.71667	7.74760E-001	7.74819E-001	0.00000E+000	...........	1367.57
	26	6.975	7.74763E-001	7.74815E-001	0.00000E+000	...........	1367.57
	27	7.23333	7.74777E-001	7.74751E-001	0.00000E+000	...........	1367.57
	28	7.49167	7.74791E-001	7.74863E-001	0.00000E+000	...........	1367.57
	29	7.75	7.74803E-001	7.74970E-001	0.00000E+000	...........	1367.65
	30	8.00833	7.74829E-001	7.75143E-001	0.00000E+000	...........	1367.65
	31	8.26667	7.74892E-001	7.75369E-001	0.00000E+000	...........	1367.65
	32	8.525	7.75002E-001	7.75500E-001	0.00000E+000	...........	1367.65
	33	8.78333	7.75151E-001	7.75666E-001	0.00000E+000	...........	1367.65
	34	9.04167	7.75314E-001	7.75641E-001	0.00000E+000	...........	1367.65
	35	9.3	7.75459E-001	7.75523E-001	0.00000E+000	...........	1367.65
	36	9.5583	7.75551E-001	7.75392E-001	0.00000E+000	...........	1367.65
	37	9.8167	7.75566E-001	7.75316E-001	0.00000E+000	...........	1367.65
	38	10.075	7.75512E-001	7.75026E-001	0.00000E+000	...........	1367.65
	39	10.3333	7.75402E-001	7.74796E-001	0.00000E+000	...........	1367.65
	40	10.5917	7.75246E-001	7.74672E-001	0.00000E+000	...........	1367.65
	41	10.85	7.75063E-001	7.74683E-001	0.00000E+000	...........	1367.65
	42	11.1083	7.74889E-001	7.74604E-001	0.00000E+000	...........	1367.65
	43	11.3667	7.74759E-001	7.74618E-001	0.00000E+000	...........	1367.65
	44	11.625	7.74675E-001	7.74436E-001	0.00000E+000	...........	1367.65
	45	11.8833	7.74613E-001	7.74366E-001	0.00000E+000	...........	1367.65
	46	12.1417	7.74548E-001	7.74289E-001	0.00000E+000	...........	1367.65
	47	12.4	7.74467E-001	7.74118E-001	0.00000E+000	...........	1367.65
	48	12.6583	7.74368E-001	7.73831E-001	0.00000E+000	...........	1367.65
	49	12.9167	7.74240E-001	7.73660E-001	0.00000E+000	...........	1367.65
	50	13.175	7.74076E-001	7.73489E-001	0.00000E+000	...........	1367.65
	51	13.4333	7.73890E-001	7.73485E-001	0.00000E+000	...........	1367.65
	52	13.6917	7.73719E-001	7.73596E-001	0.00000E+000	...........	1367.50
	53	13.95	7.73602E-001	7.73610E-001	0.00000E+000	...........	1367.48
	54	14.2083	7.73559E-001	7.73823E-001	0.00000E+000	...........	1367.48
	55	14.4667	7.73589E-001	7.74069E-001	0.00000E+000	...........	1367.48
	56	14.725	7.73687E-001	7.74281E-001	0.00000E+000	...........	1367.57
	57	14.9833	7.73840E-001	7.74341E-001	0.00000E+000	...........	1367.57
EOC	QUANT	0.7738403	Open Circuit (V)
PSTATMODEL	IQUANT	64	Pstat Model
PSTATSECTION	LABEL	IFC1010-32247	Pstat Section
PSTATSERIALNO	LABEL	32247	Pstat Serial Number
CTRLMODE	IQUANT	1	Control Mode
ELECTROMETER	IQUANT	0	RE=0 or CS=1
IESTAB	IQUANT	2	I/E Stability
CASPEED	IQUANT	4	Control Amp Speed
CONVENTION	IQUANT	1	Current Convention
ICHRANGE	IQUANT	2	Ich Range
ICHRANGEMODE	TOGGLE	F	Ich Auto Range
ICHOFFSETENABLE	TOGGLE	F	Ich Offset Enable
ICHOFFSET	QUANT	0	Ich Offset (V)
ICHFILTER	IQUANT	2	Ich Filter
VCHRANGE	IQUANT	2	Vch Range
VCHRANGEMODE	TOGGLE	F	Vch Auto Range
VCHOFFSETENABLE	TOGGLE	F	Vch Offset Enable
VCHOFFSET	QUANT	0	Vch Offset (V)
VCHFILTER	IQUANT	2	Vch Filter
IERANGELOWERLIMIT	IQUANT	4	I/E Range Lower Limit
IERANGEMODE	TOGGLE	F	I/E AutoRange
IERANGE	IQUANT	5	I/E Range
ACHSELECT	IQUANT	0	Ach Select
ACHRANGE	IQUANT	2	Ach Range
ACHOFFSETENABLE	TOGGLE	F	Ach Offset Enable
ACHOFFSET	QUANT	0	Ach Offset (V)
ACHFILTER	IQUANT	1	Ach Filter
SENSECABLEID	IQUANT	14	Sense Cable ID
PWRCABLEID	IQUANT	14	Power Cable ID
DCCALDATE	LABEL	11/18/2024	DC Calibration Date
ACCALDATE	LABEL	4/18/2022	AC Calibration Date
FRAMEWORKVERSION	LABEL	7.10.3	Framework Version
INSTRUMENTVERSION	LABEL	4.91	Instrument Version
COMMVERSION	LABEL	3.10	Communications Version
CPUPLDVERSION	LABEL	2.22	CPU PLD Version
CTRLPLDVERSION	LABEL	0.00	CTRL PLD Version
PSTATPLDVERSION	LABEL	0.00	PSTAT PLD Version
CURVE1	TABLE
	Pt	T	Vf	Im	Vu	Sig	Ach	IERange	Over	Temp
	#	s	V vs. Ref.	A	V	V	V	#	bits	deg C
	0	0.0002	7.73931E-001	-5.80683E-013	0.00000E+000	7.73851E-001	0.00000E+000	5	...........	1367.65
	1	0.0004	7.63858E-001	-1.29732E-010	0.00000E+000	7.63853E-001	0.00000E+000	5	...........	1367.65
	2	0.0006	7.54286E-001	-2.51208E-010	0.00000E+000	7.53856E-001	0.00000E+000	5	...........	1367.65
	3	0.0008	7.44293E-001	-3.83030E-010	0.00000E+000	7.43859E-001	0.00000E+000	5	...........	1367.65
	4	0.001	7.34271E-001	-5.14851E-010	0.00000E+000	7.33861E-001	0.00000E+000	5	...........	1367.65
	5	0.0012	7.24278E-001	-6.44003E-010	0.00000E+000	7.23864E-001	0.00000E+000	5	...........	1367.65
	6	0.0014	7.14235E-001	-7.77826E-010	0.00000E+000	7.13816E-001	0.00000E+000	5	...........	1367.65
	7	0.0016	7.04273E-001	-9.16990E-010	0.00000E+000	7.03819E-001	0.00000E+000	5	...........	1367.65
	8	0.0018	6.94280E-001	-1.05782E-009	0.00000E+000	6.93821E-001	0.00000E+000	5	...........	1367.65
	9	0.002	6.84247E-001	-1.21067E-009	0.00000E+000	6.83824E-001	0.00000E+000	5	...........	1367.65
	10	0.0022	6.74234E-001	-1.37887E-009	0.00000E+000	6.73826E-001	0.00000E+000	5	...........	1367.65
	11	0.0024	6.64292E-001	-1.56175E-009	0.00000E+000	6.63829E-001	0.00000E+000	5	...........	1367.65
	12	0.0026	6.54269E-001	-1.76765E-009	0.00000E+000	6.53832E-001	0.00000E+000	5	...........	1367.65
	13	0.0028	6.44266E-001	-1.98992E-009	0.00000E+000	6.43834E-001	0.00000E+000	5	...........	1367.65
	14	0.003	6.34244E-001	-2.23454E-009	0.00000E+000	6.33837E-001	0.00000E+000	5	...........	1367.65
	15	0.0032	6.24261E-001	-2.49551E-009	0.00000E+000	6.23839E-001	0.00000E+000	5	...........	1367.65
	16	0.0034	6.14258E-001	-2.76883E-009	0.00000E+000	6.13842E-001	0.00000E+000	5	...........	1367.65
	17	0.0036	6.04276E-001	-3.04816E-009	0.00000E+000	6.03844E-001	0.00000E+000	5	...........	1367.65
	18	0.0038	5.94233E-001	-3.32849E-009	0.00000E+000	5.93847E-001	0.00000E+000	5	...........	1367.65
	19	0.004	5.84250E-001	-3.60481E-009	0.00000E+000	5.83850E-001	0.00000E+000	5	...........	1367.65
	20	0.0042	5.74318E-001	-3.87613E-009	0.00000E+000	5.73852E-001	0.00000E+000	5	...........	1367.65
	21	0.0044	5.64295E-001	-4.13710E-009	0.00000E+000	5.63855E-001	0.00000E+000	5	...........	1367.65
	22	0.0046	5.54242E-001	-4.39440E-009	0.00000E+000	5.53857E-001	0.00000E+000	5	...........	1367.65
	23	0.0048	5.44289E-001	-4.64470E-009	0.00000E+000	5.43860E-001	0.00000E+000	5	...........	1367.65
	24	0.005	5.34287E-001	-4.89032E-009	0.00000E+000	5.33862E-001	0.00000E+000	5	...........	1367.65
	25	0.0052	5.24264E-001	-5.12393E-009	0.00000E+000	5.23865E-001	0.00000E+000	5	...........	1367.65
	26	0.0054	5.14241E-001	-5.35487E-009	0.00000E+000	5.13817E-001	0.00000E+000	5	...........	1367.65
	27	0.0056	5.04199E-001	-5.57779E-009	0.00000E+000	5.03820E-001	0.00000E+000	5	...........	1367.65
	28	0.0058	4.94246E-001	-5.79638E-009	0.00000E+000	4.93823E-001	0.00000E+000	5	...........	1367.65
	29	0.006	4.84233E-001	-6.01397E-009	0.00000E+000	4.83825E-001	0.00000E+000	5	...........	1367.65
	30	0.0062	4.74241E-001	-6.23290E-009	0.00000E+000	4.73828E-001	0.00000E+000	5	...........	1367.65
	31	0.0064	4.64248E-001	-6.45315E-009	0.00000E+000	4.63830E-001	0.00000E+000	5	...........	1367.65
	32	0.0066	4.54215E-001	-6.67608E-009	0.00000E+000	4.53833E-001	0.00000E+000	5	...........	1367.65
	33	0.0068	4.44252E-001	-6.90168E-009	0.00000E+000	4.43835E-001	0.00000E+000	5	...........	1367.65
	34	0.007	4.34190E-001	-7.12928E-009	0.00000E+000	4.33838E-001	0.00000E+000	5	...........	1367.65
	35	0.0072	4.24257E-001	-7.36489E-009	0.00000E+000	4.23840E-001	0.00000E+000	5	...........	1367.65
	36	0.0074	4.14214E-001	-7.60250E-009	0.00000E+000	4.13843E-001	0.00000E+000	5	...........	1367.65
	37	0.0076	4.04282E-001	-7.84412E-009	0.00000E+000	4.03846E-001	0.00000E+000	5	...........	1367.65
	38	0.0078	3.94249E-001	-8.08974E-009	0.00000E+000	3.93848E-001	0.00000E+000	5	...........	1367.65
	39	0.008	3.84256E-001	-8.33737E-009	0.00000E+000	3.83851E-001	0.00000E+000	5	...........	1367.65
	40	0.0082	3.74274E-001	-8.58966E-009	0.00000E+000	3.73853E-001	0.00000E+000	5	...........	1367.65
	41	0.0084	3.64241E-001	-8.84296E-009	0.00000E+000	3.63856E-001	0.00000E+000	5	...........	1367.65
	42	0.0086	3.54248E-001	-9.09759E-009	0.00000E+000	3.53858E-001	0.00000E+000	5	...........	1367.65
	43	0.0088	3.44256E-001	-9.35523E-009	0.00000E+000	3.43861E-001	0.00000E+000	5	...........	1367.65
	44	0.009	3.34273E-001	-9.61654E-009	0.00000E+000	3.33863E-001	0.00000E+000	5	...........	1367.65
	45	0.0092	3.24210E-001	-9.87450E-009	0.00000E+000	3.23816E-001	0.00000E+000	5	...........	1367.65
	46	0.0094	3.14187E-001	-1.01305E-008	0.00000E+000	3.13819E-001	0.00000E+000	5	...........	1367.65
	47	0.0096	3.04195E-001	-1.03828E-008	0.00000E+000	3.03821E-001	0.00000E+000	5	...........	1367.65
	48	0.0098	2.94202E-001	-1.06287E-008	0.00000E+000	2.93824E-001	0.00000E+000	5	...........	1367.65
	49	0.01	2.84209E-001	-1.08683E-008	0.00000E+000	2.83826E-001	0.00000E+000	5	...........	1367.65
	50	0.0102	2.74217E-001	-1.10949E-008	0.00000E+000	2.73829E-001	0.00000E+000	5	...........	1367.65
	51	0.0104	2.64194E-001	-1.13092E-008	0.00000E+000	2.63831E-001	0.00000E+000	5	...........	1367.65
	52	0.0106	2.54221E-001	-1.15078E-008	0.00000E+000	2.53834E-001	0.00000E+000	5	...........	1367.65
	53	0.0108	2.44249E-001	-1.16933E-008	0.00000E+000	2.43837E-001	0.00000E+000	5	...........	1367.65
	54	0.011	2.34246E-001	-1.18618E-008	0.00000E+000	2.33839E-001	0.00000E+000	5	...........	1367.65
	55	0.0112	2.24233E-001	-1.20140E-008	0.00000E+000	2.23842E-001	0.00000E+000	5	...........	1367.65
	56	0.0114	2.14190E-001	-1.21472E-008	0.00000E+000	2.13844E-001	0.00000E+000	5	...........	1367.65
	57	0.0116	2.04218E-001	-1.22656E-008	0.00000E+000	2.03847E-001	0.00000E+000	5	...........	1367.65
	58	0.0118	1.94235E-001	-1.23704E-008	0.00000E+000	1.93849E-001	0.00000E+000	5	...........	1367.65
	59	0.012	1.84232E-001	-1.24592E-008	0.00000E+000	1.83852E-001	0.00000E+000	5	...........	1367.65
	60	0.0122	1.74240E-001	-1.25326E-008	0.00000E+000	1.73854E-001	0.00000E+000	5	...........	1367.65
	61	0.0124	1.64227E-001	-1.25970E-008	0.00000E+000	1.63857E-001	0.00000E+000	5	...........	1367.65
	62	0.0126	1.54244E-001	-1.26461E-008	0.00000E+000	1.53860E-001	0.00000E+000	5	...........	1367.65
	63	0.0128	1.44202E-001	-1.26798E-008	0.00000E+000	1.43862E-001	0.00000E+000	5	...........	1367.65
	64	0.013	1.34249E-001	-1.27045E-008	0.00000E+000	1.33865E-001	0.00000E+000	5	...........	1367.65
	65	0.0132	1.24206E-001	-1.27168E-008	0.00000E+000	1.23817E-001	0.00000E+000	5	...........	1367.65
	66	0.0134	1.14194E-001	-1.27182E-008	0.00000E+000	1.13820E-001	0.00000E+000	5	...........	1367.65
	67	0.0136	1.04181E-001	-1.27065E-008	0.00000E+000	1.03822E-001	0.00000E+000	5	...........	1367.65
	68	0.0138	9.41482E-002	-1.26895E-008	0.00000E+000	9.38250E-002	0.00000E+000	5	...........	1367.65
	69	0.014	8.41655E-002	-1.26591E-008	0.00000E+000	8.38275E-002	0.00000E+000	5	...........	1367.65
	70	0.0142	7.42028E-002	-1.26217E-008	0.00000E+000	7.38301E-002	0.00000E+000	5	...........	1367.65
	71	0.0144	6.42201E-002	-1.25777E-008	0.00000E+000	6.38326E-002	0.00000E+000	5	...........	1367.65
	72	0.0146	5.41974E-002	-1.25249E-008	0.00000E+000	5.38352E-002	0.00000E+000	5	...........	1367.65
	73	0.0148	4.42047E-002	-1.24712E-008	0.00000E+000	4.38378E-002	0.00000E+000	5	...........	1367.65
	74	0.015	3.42320E-002	-1.24055E-008	0.00000E+000	3.38403E-002	0.00000E+000	5	...........	1367.65
	75	0.0152	2.42293E-002	-1.23394E-008	0.00000E+000	2.38429E-002	0.00000E+000	5	...........	1367.65
	76	0.0154	1.42166E-002	-1.22676E-008	0.00000E+000	1.38454E-002	0.00000E+000	5	...........	1367.65
	77	0.0156	4.24394E-003	-1.21886E-008	0.00000E+000	3.84799E-003	0.00000E+000	5	...........	1367.65
	78	0.0158	-5.81877E-003	-1.21088E-008	0.00000E+000	-6.14946E-003	0.00000E+000	5	...........	1367.65
	79	0.016	-1.58215E-002	-1.20287E-008	0.00000E+000	-1.61469E-002	0.00000E+000	5	...........	1367.65
	80	0.0162	-2.58242E-002	-1.19469E-008	0.00000E+000	-2.61443E-002	0.00000E+000	5	...........	1367.65
	81	0.0164	-3.57768E-002	-1.18672E-008	0.00000E+000	-3.61418E-002	0.00000E+000	5	...........	1367.65
	82	0.0166	-4.57795E-002	-1.17911E-008	0.00000E+000	-4.61392E-002	0.00000E+000	5	...........	1367.65
	83	0.0168	-5.57822E-002	-1.17150E-008	0.00000E+000	-5.61367E-002	0.00000E+000	5	...........	1367.65
	84	0.017	-6.58549E-002	-1.16436E-008	0.00000E+000	-6.61841E-002	0.00000E+000	5	...........	1367.65
	85	0.0172	-7.58276E-002	-1.15772E-008	0.00000E+000	-7.61815E-002	0.00000E+000	5	...........	1367.65
	86	0.0174	-8.58303E-002	-1.15204E-008	0.00000E+000	-8.61790E-002	0.00000E+000	5	...........	1367.65
	87	0.0176	-9.58430E-002	-1.14734E-008	0.00000E+000	-9.61764E-002	0.00000E+000	5	...........	1367.65
	88	0.0178	-1.05826E-001	-1.14327E-008	0.00000E+000	-1.06174E-001	0.00000E+000	5	...........	1367.65
	89	0.018	-1.15848E-001	-1.14036E-008	0.00000E+000	-1.16171E-001	0.00000E+000	5	...........	1367.65
	90	0.0182	-1.25811E-001	-1.13836E-008	0.00000E+000	-1.26169E-001	0.00000E+000	5	...........	1367.65
	91	0.0184	-1.35794E-001	-1.13663E-008	0.00000E+000	-1.36166E-001	0.00000E+000	5	...........	1367.65
	92	0.0186	-1.45816E-001	-1.13569E-008	0.00000E+000	-1.46164E-001	0.00000E+000	5	...........	1367.65
	93	0.0188	-1.55819E-001	-1.13502E-008	0.00000E+000	-1.56161E-001	0.00000E+000	5	...........	1367.65
	94	0.019	-1.65752E-001	-1.13506E-008	0.00000E+000	-1.66158E-001	0.00000E+000	5	...........	1367.65
	95	0.0192	-1.75815E-001	-1.13526E-008	0.00000E+000	-1.76156E-001	0.00000E+000	5	...........	1367.65
	96	0.0194	-1.85797E-001	-1.13559E-008	0.00000E+000	-1.86153E-001	0.00000E+000	5	...........	1367.65
	97	0.0196	-1.95840E-001	-1.13716E-008	0.00000E+000	-1.96151E-001	0.00000E+000	5	...........	1367.65
	98	0.0198	-2.05813E-001	-1.13899E-008	0.00000E+000	-2.06148E-001	0.00000E+000	5	...........	1367.65
	99	0.02	-2.15775E-001	-1.14183E-008	0.00000E+000	-2.16146E-001	0.00000E+000	5	...........	1367.65
	100	0.0202	-2.25828E-001	-1.14530E-008	0.00000E+000	-2.26143E-001	0.00000E+000	5	...........	1367.65
	101	0.0204	-2.35791E-001	-1.15004E-008	0.00000E+000	-2.36141E-001	0.00000E+000	5	...........	1367.65
	102	0.0206	-2.45783E-001	-1.15511E-008	0.00000E+000	-2.46138E-001	0.00000E+000	5	...........	1367.65
	103	0.0208	-2.55776E-001	-1.16099E-008	0.00000E+000	-2.56135E-001	0.00000E+000	5	...........	1367.65
	104	0.021	-2.65849E-001	-1.16830E-008	0.00000E+000	-2.66183E-001	0.00000E+000	5	...........	1367.65
	105	0.0212	-2.75842E-001	-1.17597E-008	0.00000E+000	-2.76180E-001	0.00000E+000	5	...........	1367.65
	106	0.0214	-2.85844E-001	-1.18452E-008	0.00000E+000	-2.86178E-001	0.00000E+000	5	...........	1367.65
	107	0.0216	-2.95897E-001	-1.19399E-008	0.00000E+000	-2.96175E-001	0.00000E+000	5	...........	1367.65
	108	0.0218	-3.05820E-001	-1.20370E-008	0.00000E+000	-3.06173E-001	0.00000E+000	5	...........	1367.65
	109	0.022	-3.15792E-001	-1.21418E-008	0.00000E+000	-3.16170E-001	0.00000E+000	5	...........	1367.65
	110	0.0222	-3.25785E-001	-1.22533E-008	0.00000E+000	-3.26168E-001	0.00000E+000	5	...........	1367.65
	111	0.0224	-3.35858E-001	-1.23698E-008	0.00000E+000	-3.36165E-001	0.00000E+000	5	...........	1367.65
	112	0.0226	-3.45820E-001	-1.24852E-008	0.00000E+000	-3.46162E-001	0.00000E+000	5	...........	1367.65
	113	0.0228	-3.55823E-001	-1.25977E-008	0.00000E+000	-3.56160E-001	0.00000E+000	5	...........	1367.65
	114	0.023	-3.65806E-001	-1.27095E-008	0.00000E+000	-3.66157E-001	0.00000E+000	5	...........	1367.65
	115	0.0232	-3.75818E-001	-1.28230E-008	0.00000E+000	-3.76155E-001	0.00000E+000	5	...........	1367.65
	116	0.0234	-3.85831E-001	-1.29474E-008	0.00000E+000	-3.86152E-001	0.00000E+000	5	...........	1367.65
	117	0.0236	-3.95784E-001	-1.30556E-008	0.00000E+000	-3.96150E-001	0.00000E+000	5	...........	1367.65
	118	0.0238	-4.05806E-001	-1.31507E-008	0.00000E+000	-4.06147E-001	0.00000E+000	5	...........	1367.65
	119	0.024	-4.15809E-001	-1.32348E-008	0.00000E+000	-4.16144E-001	0.00000E+000	5	...........	1367.65
	120	0.0242	-4.25832E-001	-1.33022E-008	0.00000E+000	-4.26142E-001	0.00000E+000	5	...........	1367.65
	121	0.0244	-4.35755E-001	-1.33526E-008	0.00000E+000	-4.36139E-001	0.00000E+000	5	...........	1367.65
	122	0.0246	-4.45777E-001	-1.33876E-008	0.00000E+000	-4.46137E-001	0.00000E+000	5	...........	1367.65
	123	0.0248	-4.55860E-001	-1.34077E-008	0.00000E+000	-4.56184E-001	0.00000E+000	5	...........	1367.65
	124	0.025	-4.65853E-001	-1.34133E-008	0.00000E+000	-4.66182E-001	0.00000E+000	5	...........	1367.65
	125	0.0252	-4.75885E-001	-1.34043E-008	0.00000E+000	-4.76179E-001	0.00000E+000	5	...........	1367.65
	126	0.0254	-4.85868E-001	-1.33820E-008	0.00000E+000	-4.86177E-001	0.00000E+000	5	...........	1367.65
	127	0.0256	-4.95861E-001	-1.33382E-008	0.00000E+000	-4.96174E-001	0.00000E+000	5	...........	1367.65
	128	0.0258	-5.05873E-001	-1.32795E-008	0.00000E+000	-5.06171E-001	0.00000E+000	5	...........	1367.65
	129	0.026	-5.15826E-001	-1.32081E-008	0.00000E+000	-5.16169E-001	0.00000E+000	5	...........	1367.65
	130	0.0262	-5.25839E-001	-1.31226E-008	0.00000E+000	-5.26166E-001	0.00000E+000	5	...........	1367.65
	131	0.0264	-5.35811E-001	-1.30182E-008	0.00000E+000	-5.36164E-001	0.00000E+000	5	...........	1367.65
	132	0.0266	-5.45824E-001	-1.29111E-008	0.00000E+000	-5.46161E-001	0.00000E+000	5	...........	1367.65
	133	0.0268	-5.55817E-001	-1.27866E-008	0.00000E+000	-5.56159E-001	0.00000E+000	5	...........	1367.65
	134	0.027	-5.65810E-001	-1.26458E-008	0.00000E+000	-5.66156E-001	0.00000E+000	5	...........	1367.65
	135	0.0272	-5.75832E-001	-1.24969E-008	0.00000E+000	-5.76154E-001	0.00000E+000	5	...........	1367.65
	136	0.0274	-5.85805E-001	-1.23437E-008	0.00000E+000	-5.86151E-001	0.00000E+000	5	...........	1367.65
	137	0.0276	-5.95818E-001	-1.21845E-008	0.00000E+000	-5.96148E-001	0.00000E+000	5	...........	1367.65
	138	0.0278	-5.86485E-001	-1.14884E-008	0.00000E+000	-5.86151E-001	0.00000E+000	5	...........	1367.65
	139	0.028	-5.76482E-001	-1.07358E-008	0.00000E+000	-5.76154E-001	0.00000E+000	5	...........	1367.65
	140	0.0282	-5.66590E-001	-9.97796E-009	0.00000E+000	-5.66156E-001	0.00000E+000	5	...........	1367.65
	141	0.0284	-5.56517E-001	-9.22641E-009	0.00000E+000	-5.56159E-001	0.00000E+000	5	...........	1367.65
	142	0.0286	-5.46524E-001	-8.48854E-009	0.00000E+000	-5.46161E-001	0.00000E+000	5	...........	1367.65
	143	0.0288	-5.36532E-001	-7.76903E-009	0.00000E+000	-5.36164E-001	0.00000E+000	5	...........	1367.65
	144	0.029	-5.26559E-001	-7.07088E-009	0.00000E+000	-5.26166E-001	0.00000E+000	5	...........	1367.65
	145	0.0292	-5.16536E-001	-6.38908E-009	0.00000E+000	-5.16169E-001	0.00000E+000	5	...........	1367.65
	146	0.0294	-5.06564E-001	-5.73064E-009	0.00000E+000	-5.06171E-001	0.00000E+000	5	...........	1367.65
	147	0.0296	-4.96551E-001	-5.09022E-009	0.00000E+000	-4.96174E-001	0.00000E+000	5	...........	1367.65
	148	0.0298	-4.86548E-001	-4.47216E-009	0.00000E+000	-4.86177E-001	0.00000E+000	5	...........	1367.65
	149	0.03	-4.76566E-001	-3.87212E-009	0.00000E+000	-4.76179E-001	0.00000E+000	5	...........	1367.65
	150	0.0302	-4.66513E-001	-3.29345E-009	0.00000E+000	-4.66182E-001	0.00000E+000	5	...........	1367.65
	151	0.0304	-4.56550E-001	-2.73346E-009	0.00000E+000	-4.56184E-001	0.00000E+000	5	...........	1367.65
	152	0.0306	-4.46527E-001	-2.19048E-009	0.00000E+000	-4.46137E-001	0.00000E+000	5	...........	1367.65
	153	0.0308	-4.36555E-001	-1.67021E-009	0.00000E+000	-4.36139E-001	0.00000E+000	5	...........	1367.65
	154	0.031	-4.26542E-001	-1.16361E-009	0.00000E+000	-4.26142E-001	0.00000E+000	5	...........	1367.65
	155	0.0312	-4.16539E-001	-6.79377E-010	0.00000E+000	-4.16144E-001	0.00000E+000	5	...........	1367.65
	156	0.0314	-4.06547E-001	-2.13164E-010	0.00000E+000	-4.06147E-001	0.00000E+000	5	...........	1367.65
	157	0.0316	-3.96484E-001	2.37032E-010	0.00000E+000	-3.96150E-001	0.00000E+000	5	...........	1367.65
	158	0.0318	-3.86521E-001	6.65535E-010	0.00000E+000	-3.86152E-001	0.00000E+000	5	...........	1367.65
	159	0.032	-3.76539E-001	1.08102E-009	0.00000E+000	-3.76155E-001	0.00000E+000	5	...........	1367.65
	160	0.0322	-3.66536E-001	1.47882E-009	0.00000E+000	-3.66157E-001	0.00000E+000	5	...........	1367.65
	161	0.0324	-3.56553E-001	1.85827E-009	0.00000E+000	-3.56160E-001	0.00000E+000	5	...........	1367.65
	162	0.0326	-3.46561E-001	2.22370E-009	0.00000E+000	-3.46162E-001	0.00000E+000	5	...........	1367.65
	163	0.0328	-3.36558E-001	2.57411E-009	0.00000E+000	-3.36165E-001	0.00000E+000	5	...........	1367.65
	164	0.033	-3.26505E-001	2.90984E-009	0.00000E+000	-3.26168E-001	0.00000E+000	5	...........	1367.65
	165	0.0332	-3.16512E-001	3.23188E-009	0.00000E+000	-3.16170E-001	0.00000E+000	5	...........	1367.65
	166	0.0334	-3.06530E-001	3.53857E-009	0.00000E+000	-3.06173E-001	0.00000E+000	5	...........	1367.65
	167	0.0336	-2.96537E-001	3.83492E-009	0.00000E+000	-2.96175E-001	0.00000E+000	5	...........	1367.65
	168	0.0338	-2.86524E-001	4.11425E-009	0.00000E+000	-2.86178E-001	0.00000E+000	5	...........	1367.65
	169	0.034	-2.76562E-001	4.38123E-009	0.00000E+000	-2.76180E-001	0.00000E+000	5	...........	1367.65
	170	0.0342	-2.66509E-001	4.63686E-009	0.00000E+000	-2.66183E-001	0.00000E+000	5	...........	1367.65
	171	0.0344	-2.56476E-001	4.88148E-009	0.00000E+000	-2.56135E-001	0.00000E+000	5	...........	1367.65
	172	0.0346	-2.46464E-001	5.11109E-009	0.00000E+000	-2.46138E-001	0.00000E+000	5	...........	1367.65
	173	0.0348	-2.36471E-001	5.32834E-009	0.00000E+000	-2.36141E-001	0.00000E+000	5	...........	1367.65
	174	0.035	-2.26468E-001	5.53325E-009	0.00000E+000	-2.26143E-001	0.00000E+000	5	...........	1367.65
	175	0.0352	-2.16556E-001	5.72247E-009	0.00000E+000	-2.16146E-001	0.00000E+000	5	...........	1367.65
	176	0.0354	-2.06463E-001	5.90302E-009	0.00000E+000	-2.06148E-001	0.00000E+000	5	...........	1367.65
	177	0.0356	-1.96530E-001	6.07221E-009	0.00000E+000	-1.96151E-001	0.00000E+000	5	...........	1367.65
	178	0.0358	-1.86507E-001	6.22940E-009	0.00000E+000	-1.86153E-001	0.00000E+000	5	...........	1367.65
	179	0.036	-1.76535E-001	6.37223E-009	0.00000E+000	-1.76156E-001	0.00000E+000	5	...........	1367.65
	180	0.0362	-1.66502E-001	6.50873E-009	0.00000E+000	-1.66158E-001	0.00000E+000	5	...........	1367.65
	181	0.0364	-1.56519E-001	6.62987E-009	0.00000E+000	-1.56161E-001	0.00000E+000	5	...........	1367.65
	182	0.0366	-1.46517E-001	6.74400E-009	0.00000E+000	-1.46164E-001	0.00000E+000	5	...........	1367.65
	183	0.0368	-1.36514E-001	6.84879E-009	0.00000E+000	-1.36166E-001	0.00000E+000	5	...........	1367.65
	184	0.037	-1.26521E-001	6.94724E-009	0.00000E+000	-1.26169E-001	0.00000E+000	5	...........	1367.65
	185	0.0372	-1.16579E-001	7.03101E-009	0.00000E+000	-1.16171E-001	0.00000E+000	5	...........	1367.65
	186	0.0374	-1.06526E-001	7.11277E-009	0.00000E+000	-1.06174E-001	0.00000E+000	5	...........	1367.65
	187	0.0376	-9.65432E-002	7.18419E-009	0.00000E+000	-9.61764E-002	0.00000E+000	5	...........	1367.65
	188	0.0378	-8.65405E-002	7.25460E-009	0.00000E+000	-8.61790E-002	0.00000E+000	5	...........	1367.65
	189	0.038	-7.65278E-002	7.31734E-009	0.00000E+000	-7.61815E-002	0.00000E+000	5	...........	1367.65
	190	0.0382	-6.65451E-002	7.37207E-009	0.00000E+000	-6.61841E-002	0.00000E+000	5	...........	1367.65
	191	0.0384	-5.64824E-002	7.43014E-009	0.00000E+000	-5.61367E-002	0.00000E+000	5	...........	1367.65
	192	0.0386	-4.64897E-002	7.48120E-009	0.00000E+000	-4.61392E-002	0.00000E+000	5	...........	1367.65
	193	0.0388	-3.65270E-002	7.53159E-009	0.00000E+000	-3.61418E-002	0.00000E+000	5	...........	1367.65
	194	0.039	-2.65043E-002	7.57898E-009	0.00000E+000	-2.61443E-002	0.00000E+000	5	...........	1367.65
	195	0.0392	-1.65016E-002	7.62737E-009	0.00000E+000	-1.61469E-002	0.00000E+000	5	...........	1367.65
	196	0.0394	-6.49895E-003	7.67576E-009	0.00000E+000	-6.14946E-003	0.00000E+000	5	...........	1367.65
	197	0.0396	3.52375E-003	7.72649E-009	0.00000E+000	3.84799E-003	0.00000E+000	5	...........	1367.65
	198	0.0398	1.35064E-002	7.77888E-009	0.00000E+000	1.38454E-002	0.00000E+000	5	...........	1367.65
	199	0.04	2.34691E-002	7.83228E-009	0.00000E+000	2.38429E-002	0.00000E+000	5	...........	1367.65
	200	0.0402	3.34918E-002	7.89035E-009	0.00000E+000	3.38403E-002	0.00000E+000	5	...........	1367.65
	201	0.0404	4.34945E-002	7.95309E-009	0.00000E+000	4.38378E-002	0.00000E+000	5	...........	1367.65
	202	0.0406	5.35072E-002	8.01850E-009	0.00000E+000	5.38352E-002	0.00000E+000	5	...........	1367.65
	203	0.0408	6.34799E-002	8.08992E-009	0.00000E+000	6.38326E-002	0.00000E+000	5	...........	1367.65
	204	0.041	7.34626E-002	8.16167E-009	0.00000E+000	7.38301E-002	0.00000E+000	5	...........	1367.65
	205	0.0412	8.34753E-002	8.24210E-009	0.00000E+000	8.38275E-002	0.00000E+000	5	...........	1367.65
	206	0.0414	9.34980E-002	8.32553E-009	0.00000E+000	9.38250E-002	0.00000E+000	5	...........	1367.65
	207	0.0416	1.03531E-001	8.41330E-009	0.00000E+000	1.03822E-001	0.00000E+000	5	...........	1367.65
	208	0.0418	1.13553E-001	8.50507E-009	0.00000E+000	1.13820E-001	0.00000E+000	5	...........	1367.65
	209	0.042	1.23486E-001	8.59951E-009	0.00000E+000	1.23817E-001	0.00000E+000	5	...........	1367.65
	210	0.0422	1.33559E-001	8.70130E-009	0.00000E+000	1.33865E-001	0.00000E+000	5	...........	1367.65
	211	0.0424	1.43561E-001	8.80542E-009	0.00000E+000	1.43862E-001	0.00000E+000	5	...........	1367.65
	212	0.0426	1.53514E-001	8.91322E-009	0.00000E+000	1.53860E-001	0.00000E+000	5	...........	1367.65
	213	0.0428	1.63517E-001	9.02935E-009	0.00000E+000	1.63857E-001	0.00000E+000	5	...........	1367.65
	214	0.043	1.73520E-001	9.14749E-009	0.00000E+000	1.73854E-001	0.00000E+000	5	...........	1367.65
	215	0.0432	1.83542E-001	9.27297E-009	0.00000E+000	1.83852E-001	0.00000E+000	5	...........	1367.65
	216	0.0434	1.93555E-001	9.40346E-009	0.00000E+000	1.93849E-001	0.00000E+000	5	...........	1367.65
	217	0.0436	2.03498E-001	9.54262E-009	0.00000E+000	2.03847E-001	0.00000E+000	5	...........	1367.65
	218	0.0438	2.13520E-001	9.68813E-009	0.00000E+000	2.13844E-001	0.00000E+000	5	...........	1367.65
	219	0.044	2.23493E-001	9.84297E-009	0.00000E+000	2.23842E-001	0.00000E+000	5	...........	1367.65
	220	0.0442	2.33586E-001	1.00085E-008	0.00000E+000	2.33839E-001	0.00000E+000	5	...........	1367.65
	221	0.0444	2.43538E-001	1.01877E-008	0.00000E+000	2.43837E-001	0.00000E+000	5	...........	1367.65
	222	0.0446	2.53491E-001	1.03819E-008	0.00000E+000	2.53834E-001	0.00000E+000	5	...........	1367.65
	223	0.0448	2.63504E-001	1.05858E-008	0.00000E+000	2.63831E-001	0.00000E+000	5	...........	1367.65
	224	0.045	2.73476E-001	1.08034E-008	0.00000E+000	2.73829E-001	0.00000E+000	5	...........	1367.65
	225	0.0452	2.83509E-001	1.10254E-008	0.00000E+000	2.83826E-001	0.00000E+000	5	...........	1367.65
	226	0.0454	2.93552E-001	1.12500E-008	0.00000E+000	2.93824E-001	0.00000E+000	5	...........	1367.65
	227	0.0456	3.03495E-001	1.14662E-008	0.00000E+000	3.03821E-001	0.00000E+000	5	...........	1367.65
	228	0.0458	3.13527E-001	1.16748E-008	0.00000E+000	3.13819E-001	0.00000E+000	5	...........	1367.65
	229	0.046	3.23490E-001	1.18673E-008	0.00000E+000	3.23816E-001	0.00000E+000	5	...........	1367.65
	230	0.0462	3.33533E-001	1.20472E-008	0.00000E+000	3.33863E-001	0.00000E+000	5	...........	1367.65
	231	0.0464	3.43545E-001	1.22094E-008	0.00000E+000	3.43861E-001	0.00000E+000	5	...........	1367.65
	232	0.0466	3.53548E-001	1.23536E-008	0.00000E+000	3.53858E-001	0.00000E+000	5	...........	1367.65
	233	0.0468	3.63551E-001	1.24831E-008	0.00000E+000	3.63856E-001	0.00000E+000	5	...........	1367.65
	234	0.047	3.73573E-001	1.25992E-008	0.00000E+000	3.73853E-001	0.00000E+000	5	...........	1367.65
	235	0.0472	3.83536E-001	1.27003E-008	0.00000E+000	3.83851E-001	0.00000E+000	5	...........	1367.65
	236	0.0474	3.93539E-001	1.27858E-008	0.00000E+000	3.93848E-001	0.00000E+000	5	...........	1367.65
	237	0.0476	4.03551E-001	1.28602E-008	0.00000E+000	4.03846E-001	0.00000E+000	5	...........	1367.65
	238	0.0478	4.13544E-001	1.29209E-008	0.00000E+000	4.13843E-001	0.00000E+000	5	...........	1367.65
	239	0.048	4.23567E-001	1.29646E-008	0.00000E+000	4.23840E-001	0.00000E+000	5	...........	1367.65
	240	0.0482	4.33550E-001	1.29907E-008	0.00000E+000	4.33838E-001	0.00000E+000	5	...........	1367.65
	241	0.0484	4.43542E-001	1.30067E-008	0.00000E+000	4.43835E-001	0.00000E+000	5	...........	1367.65
	242	0.0486	4.53525E-001	1.30057E-008	0.00000E+000	4.53833E-001	0.00000E+000	5	...........	1367.65
	243	0.0488	4.63548E-001	1.29857E-008	0.00000E+000	4.63830E-001	0.00000E+000	5	...........	1367.65
	244	0.049	4.73550E-001	1.29516E-008	0.00000E+000	4.73828E-001	0.00000E+000	5	...........	1367.65
	245	0.0492	4.83543E-001	1.28962E-008	0.00000E+000	4.83825E-001	0.00000E+000	5	...........	1367.65
	246	0.0494	4.93566E-001	1.28301E-008	0.00000E+000	4.93823E-001	0.00000E+000	5	...........	1367.65
	247	0.0496	5.03548E-001	1.27450E-008	0.00000E+000	5.03820E-001	0.00000E+000	5	...........	1367.65
	248	0.0498	5.13531E-001	1.26539E-008	0.00000E+000	5.13817E-001	0.00000E+000	5	...........	1367.65
	249	0.05	5.23574E-001	1.25502E-008	0.00000E+000	5.23865E-001	0.00000E+000	5	...........	1367.65
	250	0.0502	5.33617E-001	1.24440E-008	0.00000E+000	5.33862E-001	0.00000E+000	5	...........	1367.65
	251	0.0504	5.43589E-001	1.23302E-008	0.00000E+000	5.43860E-001	0.00000E+000	5	...........	1367.65
	252	0.0506	5.53572E-001	1.22118E-008	0.00000E+000	5.53857E-001	0.00000E+000	5	...........	1367.65
	253	0.0508	5.63605E-001	1.20859E-008	0.00000E+000	5.63855E-001	0.00000E+000	5	...........	1367.65
	254	0.051	5.73597E-001	1.19551E-008	0.00000E+000	5.73852E-001	0.00000E+000	5	...........	1367.65
	255	0.0512	5.83540E-001	1.18243E-008	0.00000E+000	5.83850E-001	0.00000E+000	5	...........	1367.65
	256	0.0514	5.93593E-001	1.16915E-008	0.00000E+000	5.93847E-001	0.00000E+000	5	...........	1367.65
	257	0.0516	6.03525E-001	1.15590E-008	0.00000E+000	6.03844E-001	0.00000E+000	5	...........	1367.65
	258	0.0518	6.13548E-001	1.14265E-008	0.00000E+000	6.13842E-001	0.00000E+000	5	...........	1367.65
	259	0.052	6.23581E-001	1.12943E-008	0.00000E+000	6.23839E-001	0.00000E+000	5	...........	1367.65
	260	0.0522	6.33593E-001	1.11605E-008	0.00000E+000	6.33837E-001	0.00000E+000	5	...........	1367.65
	261	0.0524	6.43586E-001	1.10254E-008	0.00000E+000	6.43834E-001	0.00000E+000	5	...........	1367.65
	262	0.0526	6.53569E-001	1.08895E-008	0.00000E+000	6.53832E-001	0.00000E+000	5	...........	1367.65
	263	0.0528	6.63531E-001	1.07507E-008	0.00000E+000	6.63829E-001	0.00000E+000	5	...........	1367.65
	264	0.053	6.73544E-001	1.06119E-008	0.00000E+000	6.73826E-001	0.00000E+000	5	...........	1367.65
	265	0.0532	6.83547E-001	1.04687E-008	0.00000E+000	6.83824E-001	0.00000E+000	5	...........	1367.65
	266	0.0534	6.93560E-001	1.03222E-008	0.00000E+000	6.93821E-001	0.00000E+000	5	...........	1367.65
	267	0.0536	7.03542E-001	1.01754E-008	0.00000E+000	7.03819E-001	0.00000E+000	5	...........	1367.65
	268	0.0538	7.13565E-001	1.00265E-008	0.00000E+000	7.13816E-001	0.00000E+000	5	...........	1367.65
	269	0.054	7.23578E-001	9.88235E-009	0.00000E+000	7.23864E-001	0.00000E+000	5	...........	1367.65
	270	0.0542	7.33570E-001	9.73151E-009	0.00000E+000	7.33861E-001	0.00000E+000	5	...........	1367.65
	271	0.0544	7.43603E-001	9.58701E-009	0.00000E+000	7.43859E-001	0.00000E+000	5	...........	1367.65
	272	0.0546	7.53606E-001	9.44484E-009	0.00000E+000	7.53856E-001	0.00000E+000	5	...........	1367.65
	273	0.0548	7.63618E-001	9.30367E-009	0.00000E+000	7.63853E-001	0.00000E+000	5	...........	1367.65
	274	0.055	7.73621E-001	9.16751E-009	0.00000E+000	7.73851E-001	0.00000E+000	5	...........	1367.65
	275	0.0552	7.83574E-001	9.03636E-009	0.00000E+000	7.83848E-001	0.00000E+000	5	...........	1367.65
	276	0.0554	7.93557E-001	8.91155E-009	0.00000E+000	7.93846E-001	0.00000E+000	5	...........	1367.65
	277	0.0556	8.03569E-001	8.79374E-009	0.00000E+000	8.03843E-001	0.00000E+000	5	...........	1367.65
CURVE2	TABLE
	Pt	T	Vf	Im	Vu	Sig	Ach	IERange	Over	Temp
	#	s	V vs. Ref.	A	V	V	V	#	bits	deg C
	278	0.0558	7.90546E-001	8.22574E-009	0.00000E+000	7.89997E-001	0.00000E+000	5	...........	1367.65
	279	0.056	7.80443E-001	7.63772E-009	0.00000E+000	7.79999E-001	0.00000E+000	5	...........	1367.65
	280	0.0562	7.70430E-001	7.05704E-009	0.00000E+000	7.70002E-001	0.00000E+000	5	...........	1367.65
	281	0.0564	7.60468E-001	6.48637E-009	0.00000E+000	7.60004E-001	0.00000E+000	5	...........	1367.65
	282	0.0566	7.50435E-001	5.92471E-009	0.00000E+000	7.50007E-001	0.00000E+000	5	...........	1367.65
	283	0.0568	7.40462E-001	5.37907E-009	0.00000E+000	7.40010E-001	0.00000E+000	5	...........	1367.65
	284	0.057	7.30449E-001	4.84344E-009	0.00000E+000	7.30012E-001	0.00000E+000	5	...........	1367.65
	285	0.0572	7.20457E-001	4.32183E-009	0.00000E+000	7.20015E-001	0.00000E+000	5	...........	1367.65
	286	0.0574	7.10494E-001	3.81423E-009	0.00000E+000	7.10017E-001	0.00000E+000	5	...........	1367.65
	287	0.0576	7.00451E-001	3.31731E-009	0.00000E+000	7.00020E-001	0.00000E+000	5	...........	1367.65
	288	0.0578	6.90469E-001	2.82774E-009	0.00000E+000	6.90022E-001	0.00000E+000	5	...........	1367.65
	289	0.058	6.80466E-001	2.34417E-009	0.00000E+000	6.80025E-001	0.00000E+000	5	...........	1367.65
	290	0.0582	6.70373E-001	1.86995E-009	0.00000E+000	6.69977E-001	0.00000E+000	5	...........	1367.65
	291	0.0584	6.60431E-001	1.40373E-009	0.00000E+000	6.59980E-001	0.00000E+000	5	...........	1367.65
	292	0.0586	6.50438E-001	9.40190E-010	0.00000E+000	6.49983E-001	0.00000E+000	5	...........	1367.65
	293	0.0588	6.40395E-001	4.81318E-010	0.00000E+000	6.39985E-001	0.00000E+000	5	...........	1367.65
	294	0.059	6.30403E-001	3.34593E-011	0.00000E+000	6.29988E-001	0.00000E+000	5	...........	1367.65
	295	0.0592	6.20430E-001	-4.10729E-010	0.00000E+000	6.19990E-001	0.00000E+000	5	...........	1367.65
	296	0.0594	6.10427E-001	-8.39232E-010	0.00000E+000	6.09993E-001	0.00000E+000	5	...........	1367.65
	297	0.0596	6.00415E-001	-1.25472E-009	0.00000E+000	5.99995E-001	0.00000E+000	5	...........	1367.65
	298	0.0598	5.90442E-001	-1.65319E-009	0.00000E+000	5.89998E-001	0.00000E+000	5	...........	1367.65
	299	0.06	5.80409E-001	-2.03463E-009	0.00000E+000	5.80001E-001	0.00000E+000	5	...........	1367.65
	300	0.0602	5.70396E-001	-2.39873E-009	0.00000E+000	5.70003E-001	0.00000E+000	5	...........	1367.65
	301	0.0604	5.60404E-001	-2.74647E-009	0.00000E+000	5.60006E-001	0.00000E+000	5	...........	1367.65
	302	0.0606	5.50431E-001	-3.08420E-009	0.00000E+000	5.50008E-001	0.00000E+000	5	...........	1367.65
	303	0.0608	5.40438E-001	-3.41025E-009	0.00000E+000	5.40011E-001	0.00000E+000	5	...........	1367.65
	304	0.061	5.30436E-001	-3.72929E-009	0.00000E+000	5.30013E-001	0.00000E+000	5	...........	1367.65
	305	0.0612	5.20433E-001	-4.03698E-009	0.00000E+000	5.20016E-001	0.00000E+000	5	...........	1367.65
	306	0.0614	5.10400E-001	-4.34468E-009	0.00000E+000	5.10018E-001	0.00000E+000	5	...........	1367.65
	307	0.0616	5.00418E-001	-4.64203E-009	0.00000E+000	5.00021E-001	0.00000E+000	5	...........	1367.65
	308	0.0618	4.90445E-001	-4.94038E-009	0.00000E+000	4.90024E-001	0.00000E+000	5	...........	1367.65
	309	0.062	4.80392E-001	-5.23973E-009	0.00000E+000	4.79976E-001	0.00000E+000	5	...........	1367.65
	310	0.0622	4.70360E-001	-5.54042E-009	0.00000E+000	4.69979E-001	0.00000E+000	5	...........	1367.65
	311	0.0624	4.60387E-001	-5.84110E-009	0.00000E+000	4.59981E-001	0.00000E+000	5	...........	1367.65
	312	0.0626	4.50384E-001	-6.14446E-009	0.00000E+000	4.49984E-001	0.00000E+000	5	...........	1367.65
	313	0.0628	4.40411E-001	-6.45149E-009	0.00000E+000	4.39986E-001	0.00000E+000	5	...........	1367.65
	314	0.063	4.30369E-001	-6.76285E-009	0.00000E+000	4.29989E-001	0.00000E+000	5	...........	1367.65
	315	0.0632	4.20406E-001	-7.08022E-009	0.00000E+000	4.19991E-001	0.00000E+000	5	...........	1367.65
	316	0.0634	4.10413E-001	-7.40260E-009	0.00000E+000	4.09994E-001	0.00000E+000	5	...........	1367.65
	317	0.0636	4.00431E-001	-7.72231E-009	0.00000E+000	3.99997E-001	0.00000E+000	5	...........	1367.65
	318	0.0638	3.90408E-001	-8.04302E-009	0.00000E+000	3.89999E-001	0.00000E+000	5	...........	1367.65
	319	0.064	3.80355E-001	-8.36306E-009	0.00000E+000	3.80002E-001	0.00000E+000	5	...........	1367.65
	320	0.0642	3.70403E-001	-8.67309E-009	0.00000E+000	3.70004E-001	0.00000E+000	5	...........	1367.65
	321	0.0644	3.60380E-001	-8.97345E-009	0.00000E+000	3.60007E-001	0.00000E+000	5	...........	1367.65
	322	0.0646	3.50407E-001	-9.26212E-009	0.00000E+000	3.50009E-001	0.00000E+000	5	...........	1367.65
	323	0.0648	3.40444E-001	-9.53043E-009	0.00000E+000	3.40012E-001	0.00000E+000	5	...........	1367.65
	324	0.065	3.30452E-001	-9.78807E-009	0.00000E+000	3.30014E-001	0.00000E+000	5	...........	1367.65
	325	0.0652	3.20419E-001	-1.00217E-008	0.00000E+000	3.20017E-001	0.00000E+000	5	...........	1367.65
	326	0.0654	3.10416E-001	-1.02426E-008	0.00000E+000	3.10020E-001	0.00000E+000	5	...........	1367.65
	327	0.0656	3.00414E-001	-1.04398E-008	0.00000E+000	3.00022E-001	0.00000E+000	5	...........	1367.65
	328	0.0658	2.90411E-001	-1.06200E-008	0.00000E+000	2.90025E-001	0.00000E+000	5	...........	1367.65
	329	0.066	2.80368E-001	-1.07906E-008	0.00000E+000	2.79977E-001	0.00000E+000	5	...........	1367.65
	330	0.0662	2.70326E-001	-1.09414E-008	0.00000E+000	2.69980E-001	0.00000E+000	5	...........	1367.65
	331	0.0664	2.60343E-001	-1.10739E-008	0.00000E+000	2.59982E-001	0.00000E+000	5	...........	1367.65
	332	0.0666	2.50380E-001	-1.11887E-008	0.00000E+000	2.49985E-001	0.00000E+000	5	...........	1367.65
	333	0.0668	2.40398E-001	-1.12875E-008	0.00000E+000	2.39988E-001	0.00000E+000	5	...........	1367.65
[...]
	643	0.1288	-5.96433E-002	-9.76738E-009	0.00000E+000	-5.99857E-002	0.00000E+000	5	...........	1367.65
	644	0.129	-6.96660E-002	-9.71198E-009	0.00000E+000	-6.99831E-002	0.00000E+000	5	...........	1367.65
	645	0.1292	-7.96586E-002	-9.66659E-009	0.00000E+000	-7.99806E-002	0.00000E+000	5	...........	1367.65
	646	0.1294	-8.96013E-002	-9.62922E-009	0.00000E+000	-8.99780E-002	0.00000E+000	5	...........	1367.65
	647	0.1296	-9.96240E-002	-9.60385E-009	0.00000E+000	-9.99754E-002	0.00000E+000	5	...........	1367.65
	648	0.1298	-1.09697E-001	-9.58483E-009	0.00000E+000	-1.10023E-001	0.00000E+000	5	...........	1367.65
	649	0.13	-1.19669E-001	-9.57615E-009	0.00000E+000	-1.20020E-001	0.00000E+000	5	...........	1367.65
	650	0.1302	-1.29682E-001	-9.57482E-009	0.00000E+000	-1.30018E-001	0.00000E+000	5	...........	1367.65
	651	0.1304	-1.39685E-001	-9.58249E-009	0.00000E+000	-1.40015E-001	0.00000E+000	5	...........	1367.65
	652	0.1306	-1.49647E-001	-9.59885E-009	0.00000E+000	-1.50013E-001	0.00000E+000	5	...........	1367.65
	653	0.1308	-1.59640E-001	-9.62021E-009	0.00000E+000	-1.60010E-001	0.00000E+000	5	...........	1367.65
	654	0.131	-1.69623E-001	-9.64824E-009	0.00000E+000	-1.70007E-001	0.00000E+000	5	...........	1367.65
	655	0.1312	-1.79646E-001	-9.68395E-009	0.00000E+000	-1.80005E-001	0.00000E+000	5	...........	1367.65
	656	0.1314	-1.89668E-001	-9.72266E-009	0.00000E+000	-1.90002E-001	0.00000E+000	5	...........	1367.65
	657	0.1316	-1.99661E-001	-9.76371E-009	0.00000E+000	-2.00000E-001	0.00000E+000	5	...........	1367.65
	658	0.1318	-2.09634E-001	-9.81143E-009	0.00000E+000	-2.09997E-001	0.00000E+000	5	...........	1367.65
	659	0.132	-2.19656E-001	-9.86116E-009	0.00000E+000	-2.19995E-001	0.00000E+000	5	...........	1367.65
	660	0.1322	-2.29639E-001	-9.91689E-009	0.00000E+000	-2.29992E-001	0.00000E+000	5	...........	1367.65
	661	0.1324	-2.39622E-001	-9.97362E-009	0.00000E+000	-2.39990E-001	0.00000E+000	5	...........	1367.65
	662	0.1326	-2.49634E-001	-1.00364E-008	0.00000E+000	-2.49987E-001	0.00000E+000	5	...........	1367.65
	663	0.1328	-2.59647E-001	-1.01034E-008	0.00000E+000	-2.59984E-001	0.00000E+000	5	...........	1367.65
	664	0.133	-2.69620E-001	-1.01719E-008	0.00000E+000	-2.69982E-001	0.00000E+000	5	...........	1367.65
	665	0.1332	-2.79593E-001	-1.02406E-008	0.00000E+000	-2.79979E-001	0.00000E+000	5	...........	1367.65
	666	0.1334	-2.89625E-001	-1.03087E-008	0.00000E+000	-2.89977E-001	0.00000E+000	5	...........	1367.65
	667	0.1336	-2.99678E-001	-1.03824E-008	0.00000E+000	-3.00024E-001	0.00000E+000	5	...........	1367.65
	668	0.1338	-3.09681E-001	-1.04512E-008	0.00000E+000	-3.10022E-001	0.00000E+000	5	...........	1367.65
	669	0.134	-3.19673E-001	-1.05163E-008	0.00000E+000	-3.20019E-001	0.00000E+000	5	...........	1367.65
	670	0.1342	-3.29676E-001	-1.05780E-008	0.00000E+000	-3.30017E-001	0.00000E+000	5	...........	1367.65
	671	0.1344	-3.39619E-001	-1.06271E-008	0.00000E+000	-3.40014E-001	0.00000E+000	5	...........	1367.65
	672	0.1346	-3.49651E-001	-1.06818E-008	0.00000E+000	-3.50011E-001	0.00000E+000	5	...........	1367.65
	673	0.1348	-3.59654E-001	-1.07278E-008	0.00000E+000	-3.60009E-001	0.00000E+000	5	...........	1367.65
	674	0.135	-3.69677E-001	-1.07645E-008	0.00000E+000	-3.70006E-001	0.00000E+000	5	...........	1367.65
	675	0.1352	-3.79639E-001	-1.07929E-008	0.00000E+000	-3.80004E-001	0.00000E+000	5	...........	1367.65
	676	0.1354	-3.89672E-001	-1.08139E-008	0.00000E+000	-3.90001E-001	0.00000E+000	5	...........	1367.65
	677	0.1356	-3.99635E-001	-1.08246E-008	0.00000E+000	-3.99999E-001	0.00000E+000	5	...........	1367.65
	678	0.1358	-4.09668E-001	-1.08326E-008	0.00000E+000	-4.09996E-001	0.00000E+000	5	...........	1367.65
	679	0.136	-4.19650E-001	-1.08273E-008	0.00000E+000	-4.19994E-001	0.00000E+000	5	...........	1367.65
	680	0.1362	-4.29663E-001	-1.08169E-008	0.00000E+000	-4.29991E-001	0.00000E+000	5	...........	1367.65
	681	0.1364	-4.39656E-001	-1.08063E-008	0.00000E+000	-4.39988E-001	0.00000E+000	5	...........	1367.65
	682	0.1366	-4.49668E-001	-1.07779E-008	0.00000E+000	-4.49986E-001	0.00000E+000	5	...........	1367.65
	683	0.1368	-4.59651E-001	-1.07422E-008	0.00000E+000	-4.59983E-001	0.00000E+000	5	...........	1367.65
	684	0.137	-4.69664E-001	-1.06978E-008	0.00000E+000	-4.69981E-001	0.00000E+000	5	...........	1367.65
	685	0.1372	-4.79596E-001	-1.06467E-008	0.00000E+000	-4.79978E-001	0.00000E+000	5	...........	1367.65
	686	0.1374	-4.89649E-001	-1.05873E-008	0.00000E+000	-4.89976E-001	0.00000E+000	5	...........	1367.65
	687	0.1376	-4.99702E-001	-1.05209E-008	0.00000E+000	-5.00023E-001	0.00000E+000	5	...........	1367.65
	688	0.1378	-5.09664E-001	-1.04438E-008	0.00000E+000	-5.10020E-001	0.00000E+000	5	...........	1367.65
	689	0.138	-5.19667E-001	-1.03571E-008	0.00000E+000	-5.20018E-001	0.00000E+000	5	...........	1367.65
	690	0.1382	-5.29630E-001	-1.02643E-008	0.00000E+000	-5.30015E-001	0.00000E+000	5	...........	1367.65
	691	0.1384	-5.39653E-001	-1.01638E-008	0.00000E+000	-5.40013E-001	0.00000E+000	5	...........	1367.65
	692	0.1386	-5.49695E-001	-1.00530E-008	0.00000E+000	-5.50010E-001	0.00000E+000	5	...........	1367.65
	693	0.1388	-5.59628E-001	-9.94092E-009	0.00000E+000	-5.60008E-001	0.00000E+000	5	...........	1367.65
	694	0.139	-5.69691E-001	-9.82044E-009	0.00000E+000	-5.70005E-001	0.00000E+000	5	...........	1367.65
	695	0.1392	-5.79663E-001	-9.69763E-009	0.00000E+000	-5.80003E-001	0.00000E+000	5	...........	1367.65
	696	0.1394	-5.89696E-001	-9.57582E-009	0.00000E+000	-5.90000E-001	0.00000E+000	5	...........	1367.65
	697	0.1396	-5.99639E-001	-9.45134E-009	0.00000E+000	-5.99997E-001	0.00000E+000	5	...........	1367.65
	698	0.1398	-5.90376E-001	-8.86298E-009	0.00000E+000	-5.90000E-001	0.00000E+000	5	...........	1367.65
	699	0.14	-5.80373E-001	-8.23925E-009	0.00000E+000	-5.80003E-001	0.00000E+000	5	...........	1367.65
	700	0.1402	-5.70351E-001	-7.61852E-009	0.00000E+000	-5.70005E-001	0.00000E+000	5	...........	1367.65
	701	0.1404	-5.60358E-001	-7.01448E-009	0.00000E+000	-5.60008E-001	0.00000E+000	5	...........	1367.65
	702	0.1406	-5.50365E-001	-6.41177E-009	0.00000E+000	-5.50010E-001	0.00000E+000	5	...........	1367.65
	703	0.1408	-5.40383E-001	-5.82275E-009	0.00000E+000	-5.40013E-001	0.00000E+000	5	...........	1367.65
	704	0.141	-5.30360E-001	-5.24507E-009	0.00000E+000	-5.30015E-001	0.00000E+000	5	...........	1367.65
	705	0.1412	-5.20357E-001	-4.68141E-009	0.00000E+000	-5.20018E-001	0.00000E+000	5	...........	1367.65
	706	0.1414	-5.10415E-001	-4.13076E-009	0.00000E+000	-5.10020E-001	0.00000E+000	5	...........	1367.65
	707	0.1416	-5.00412E-001	-3.59580E-009	0.00000E+000	-5.00023E-001	0.00000E+000	5	...........	1367.65
	708	0.1418	-4.90379E-001	-3.08020E-009	0.00000E+000	-4.89976E-001	0.00000E+000	5	...........	1367.65
	709	0.142	-4.80367E-001	-2.57494E-009	0.00000E+000	-4.79978E-001	0.00000E+000	5	...........	1367.65
	710	0.1422	-4.70324E-001	-2.08770E-009	0.00000E+000	-4.69981E-001	0.00000E+000	5	...........	1367.65
	711	0.1424	-4.60371E-001	-1.61414E-009	0.00000E+000	-4.59983E-001	0.00000E+000	5	...........	1367.65
	712	0.1426	-4.50368E-001	-1.15727E-009	0.00000E+000	-4.49986E-001	0.00000E+000	5	...........	1367.65
	713	0.1428	-4.40346E-001	-7.12750E-010	0.00000E+000	-4.39988E-001	0.00000E+000	5	...........	1367.65
	714	0.143	-4.30343E-001	-2.82578E-010	0.00000E+000	-4.29991E-001	0.00000E+000	5	...........	1367.65
	715	0.1432	-4.20350E-001	1.33577E-010	0.00000E+000	-4.19994E-001	0.00000E+000	5	...........	1367.65
	716	0.1434	-4.10318E-001	5.35382E-010	0.00000E+000	-4.09996E-001	0.00000E+000	5	...........	1367.65
	717	0.1436	-4.00405E-001	9.23170E-010	0.00000E+000	-3.99999E-001	0.00000E+000	5	...........	1367.65
	718	0.1438	-3.90352E-001	1.30028E-009	0.00000E+000	-3.90001E-001	0.00000E+000	5	...........	1367.65
	719	0.144	-3.80400E-001	1.66137E-009	0.00000E+000	-3.80004E-001	0.00000E+000	5	...........	1367.65
	720	0.1442	-3.70327E-001	2.01212E-009	0.00000E+000	-3.70006E-001	0.00000E+000	5	...........	1367.65
	721	0.1444	-3.60394E-001	2.34918E-009	0.00000E+000	-3.60009E-001	0.00000E+000	5	...........	1367.65
	722	0.1446	-3.50402E-001	2.67423E-009	0.00000E+000	-3.50011E-001	0.00000E+000	5	...........	1367.65
	723	0.1448	-3.40379E-001	2.99060E-009	0.00000E+000	-3.40014E-001	0.00000E+000	5	...........	1367.65
	724	0.145	-3.30326E-001	3.29228E-009	0.00000E+000	-3.30017E-001	0.00000E+000	5	...........	1367.65
	725	0.1452	-3.20323E-001	3.58463E-009	0.00000E+000	-3.20019E-001	0.00000E+000	5	...........	1367.65
	726	0.1454	-3.10371E-001	3.86629E-009	0.00000E+000	-3.10022E-001	0.00000E+000	5	...........	1367.65
	727	0.1456	-3.00358E-001	4.13327E-009	0.00000E+000	-3.00024E-001	0.00000E+000	5	...........	1367.65
	728	0.1458	-2.90325E-001	4.39825E-009	0.00000E+000	-2.89977E-001	0.00000E+000	5	...........	1367.65
	729	0.146	-2.80363E-001	4.64721E-009	0.00000E+000	-2.79979E-001	0.00000E+000	5	...........	1367.65
	730	0.1462	-2.70340E-001	4.89049E-009	0.00000E+000	-2.69982E-001	0.00000E+000	5	...........	1367.65
	731	0.1464	-2.60337E-001	5.11910E-009	0.00000E+000	-2.59984E-001	0.00000E+000	5	...........	1367.65
	732	0.1466	-2.50345E-001	5.34169E-009	0.00000E+000	-2.49987E-001	0.00000E+000	5	...........	1367.65
	733	0.1468	-2.40372E-001	5.55160E-009	0.00000E+000	-2.39990E-001	0.00000E+000	5	...........	1367.65
	734	0.147	-2.30359E-001	5.75451E-009	0.00000E+000	-2.29992E-001	0.00000E+000	5	...........	1367.65
	735	0.1472	-2.20397E-001	5.94573E-009	0.00000E+000	-2.19995E-001	0.00000E+000	5	...........	1367.65
	736	0.1474	-2.10324E-001	6.12561E-009	0.00000E+000	-2.09997E-001	0.00000E+000	5	...........	1367.65
	737	0.1476	-2.00331E-001	6.29614E-009	0.00000E+000	-2.00000E-001	0.00000E+000	5	...........	1367.65
	738	0.1478	-1.90378E-001	6.45633E-009	0.00000E+000	-1.90002E-001	0.00000E+000	5	...........	1367.65
	739	0.148	-1.80376E-001	6.60517E-009	0.00000E+000	-1.80005E-001	0.00000E+000	5	...........	1367.65
	740	0.1482	-1.70323E-001	6.74367E-009	0.00000E+000	-1.70007E-001	0.00000E+000	5	...........	1367.65
	741	0.1484	-1.60350E-001	6.87282E-009	0.00000E+000	-1.60010E-001	0.00000E+000	5	...........	1367.65
	742	0.1486	-1.50368E-001	6.99196E-009	0.00000E+000	-1.50013E-001	0.00000E+000	5	...........	1367.65
	743	0.1488	-1.40345E-001	7.10242E-009	0.00000E+000	-1.40015E-001	0.00000E+000	5	...........	1367.65
	744	0.149	-1.30362E-001	7.20488E-009	0.00000E+000	-1.30018E-001	0.00000E+000	5	...........	1367.65
	745	0.1492	-1.20410E-001	7.29331E-009	0.00000E+000	-1.20020E-001	0.00000E+000	5	...........	1367.65
	746	0.1494	-1.10367E-001	7.37641E-009	0.00000E+000	-1.10023E-001	0.00000E+000	5	...........	1367.65
	747	0.1496	-1.00294E-001	7.45384E-009	0.00000E+000	-9.99754E-002	0.00000E+000	5	...........	1367.65
	748	0.1498	-9.03515E-002	7.51958E-009	0.00000E+000	-8.99780E-002	0.00000E+000	5	...........	1367.65
	749	0.15	-8.03388E-002	7.58265E-009	0.00000E+000	-7.99806E-002	0.00000E+000	5	...........	1367.65
	750	0.1502	-7.03361E-002	7.63905E-009	0.00000E+000	-6.99831E-002	0.00000E+000	5	...........	1367.65
	751	0.1504	-6.03435E-002	7.68811E-009	0.00000E+000	-5.99857E-002	0.00000E+000	5	...........	1367.65
	752	0.1506	-5.03007E-002	7.73417E-009	0.00000E+000	-4.99882E-002	0.00000E+000	5	...........	1367.65
	753	0.1508	-4.03781E-002	7.77588E-009	0.00000E+000	-3.99908E-002	0.00000E+000	5	...........	1367.65
	754	0.151	-3.03554E-002	7.81660E-009	0.00000E+000	-2.99934E-002	0.00000E+000	5	...........	1367.65
	755	0.1512	-2.03527E-002	7.85431E-009	0.00000E+000	-1.99959E-002	0.00000E+000	5	...........	1367.65
	756	0.1514	-1.03500E-002	7.89135E-009	0.00000E+000	-9.99847E-003	0.00000E+000	5	...........	1367.65
	757	0.1516	-3.17285E-004	7.92806E-009	0.00000E+000	-1.02818E-006	0.00000E+000	5	...........	1367.65
	758	0.1518	9.67541E-003	7.96611E-009	0.00000E+000	9.99641E-003	0.00000E+000	5	...........	1367.65
	759	0.152	1.97081E-002	8.00348E-009	0.00000E+000	1.99939E-002	0.00000E+000	5	...........	1367.65
	760	0.1522	2.96508E-002	8.04753E-009	0.00000E+000	2.99913E-002	0.00000E+000	5	...........	1367.65
	761	0.1524	3.96835E-002	8.09192E-009	0.00000E+000	3.99887E-002	0.00000E+000	5	...........	1367.65
	762	0.1526	4.96562E-002	8.14098E-009	0.00000E+000	4.99862E-002	0.00000E+000	5	...........	1367.65
	763	0.1528	5.96089E-002	8.19471E-009	0.00000E+000	5.99836E-002	0.00000E+000	5	...........	1367.65
	764	0.153	6.96916E-002	8.25611E-009	0.00000E+000	6.99811E-002	0.00000E+000	5	...........	1367.65
	765	0.1532	7.97043E-002	8.32052E-009	0.00000E+000	7.99785E-002	0.00000E+000	5	...........	1367.65
	766	0.1534	8.96870E-002	8.38960E-009	0.00000E+000	8.99759E-002	0.00000E+000	5	...........	1367.65
	767	0.1536	9.96996E-002	8.46469E-009	0.00000E+000	1.00023E-001	0.00000E+000	5	...........	1367.65
	768	0.1538	1.09732E-001	8.54178E-009	0.00000E+000	1.10021E-001	0.00000E+000	5	...........	1367.65
	769	0.154	1.19685E-001	8.62121E-009	0.00000E+000	1.20018E-001	0.00000E+000	5	...........	1367.65
	770	0.1542	1.29698E-001	8.70864E-009	0.00000E+000	1.30016E-001	0.00000E+000	5	...........	1367.65
	771	0.1544	1.39660E-001	8.79775E-009	0.00000E+000	1.40013E-001	0.00000E+000	5	...........	1367.65
	772	0.1546	1.49693E-001	8.89486E-009	0.00000E+000	1.50011E-001	0.00000E+000	5	...........	1367.65
	773	0.1548	1.59666E-001	8.99498E-009	0.00000E+000	1.60008E-001	0.00000E+000	5	...........	1367.65
	774	0.155	1.69658E-001	9.10010E-009	0.00000E+000	1.70005E-001	0.00000E+000	5	...........	1367.65
	775	0.1552	1.79691E-001	9.21223E-009	0.00000E+000	1.80003E-001	0.00000E+000	5	...........	1367.65
	776	0.1554	1.89704E-001	9.32937E-009	0.00000E+000	1.90000E-001	0.00000E+000	5	...........	1367.65
	777	0.1556	1.99707E-001	9.45352E-009	0.00000E+000	1.99998E-001	0.00000E+000	5	...........	1367.65
	778	0.1558	2.09689E-001	9.58534E-009	0.00000E+000	2.09995E-001	0.00000E+000	5	...........	1367.65
	779	0.156	2.19672E-001	9.72951E-009	0.00000E+000	2.19993E-001	0.00000E+000	5	...........	1367.65
	780	0.1562	2.29675E-001	9.87935E-009	0.00000E+000	2.29990E-001	0.00000E+000	5	...........	1367.65
	781	0.1564	2.39647E-001	1.00415E-008	0.00000E+000	2.39988E-001	0.00000E+000	5	...........	1367.65
	782	0.1566	2.49680E-001	1.02154E-008	0.00000E+000	2.49985E-001	0.00000E+000	5	...........	1367.65
	783	0.1568	2.59703E-001	1.04020E-008	0.00000E+000	2.59982E-001	0.00000E+000	5	...........	1367.65
	784	0.157	2.69675E-001	1.06062E-008	0.00000E+000	2.69980E-001	0.00000E+000	5	...........	1367.65
	785	0.1572	2.79658E-001	1.08225E-008	0.00000E+000	2.79977E-001	0.00000E+000	5	...........	1367.65
	786	0.1574	2.89731E-001	1.10524E-008	0.00000E+000	2.90025E-001	0.00000E+000	5	...........	1367.65
	787	0.1576	2.99704E-001	1.12830E-008	0.00000E+000	3.00022E-001	0.00000E+000	5	...........	1367.65
	788	0.1578	3.09736E-001	1.15116E-008	0.00000E+000	3.10020E-001	0.00000E+000	5	...........	1367.65
	789	0.158	3.19679E-001	1.17302E-008	0.00000E+000	3.20017E-001	0.00000E+000	5	...........	1367.65
	790	0.1582	3.29762E-001	1.19391E-008	0.00000E+000	3.30014E-001	0.00000E+000	5	...........	1367.65
	791	0.1584	3.39754E-001	1.21313E-008	0.00000E+000	3.40012E-001	0.00000E+000	5	...........	1367.65
	792	0.1586	3.49717E-001	1.23075E-008	0.00000E+000	3.50009E-001	0.00000E+000	5	...........	1367.65
	793	0.1588	3.59690E-001	1.24651E-008	0.00000E+000	3.60007E-001	0.00000E+000	5	...........	1367.65
	794	0.159	3.69702E-001	1.26052E-008	0.00000E+000	3.70004E-001	0.00000E+000	5	...........	1367.65
	795	0.1592	3.79665E-001	1.27307E-008	0.00000E+000	3.80002E-001	0.00000E+000	5	...........	1367.65
	796	0.1594	3.89718E-001	1.28472E-008	0.00000E+000	3.89999E-001	0.00000E+000	5	...........	1367.65
	797	0.1596	3.99690E-001	1.29443E-008	0.00000E+000	3.99997E-001	0.00000E+000	5	...........	1367.65
	798	0.1598	4.09673E-001	1.30287E-008	0.00000E+000	4.09994E-001	0.00000E+000	5	...........	1367.65
	799	0.16	4.19626E-001	1.30928E-008	0.00000E+000	4.19991E-001	0.00000E+000	5	...........	1367.65
	800	0.1602	4.29709E-001	1.31555E-008	0.00000E+000	4.29989E-001	0.00000E+000	5	...........	1367.65
	801	0.1604	4.39711E-001	1.31959E-008	0.00000E+000	4.39986E-001	0.00000E+000	5	...........	1367.65
	802	0.1606	4.49754E-001	1.32226E-008	0.00000E+000	4.49984E-001	0.00000E+000	5	...........	1367.65
	803	0.1608	4.59677E-001	1.32330E-008	0.00000E+000	4.59981E-001	0.00000E+000	5	...........	1367.65
	804	0.161	4.69679E-001	1.32266E-008	0.00000E+000	4.69979E-001	0.00000E+000	5	...........	1367.65
	805	0.1612	4.79742E-001	1.32016E-008	0.00000E+000	4.79976E-001	0.00000E+000	5	...........	1367.65
	806	0.1614	4.89765E-001	1.31615E-008	0.00000E+000	4.90024E-001	0.00000E+000	5	...........	1367.65
	807	0.1616	4.99757E-001	1.31015E-008	0.00000E+000	5.00021E-001	0.00000E+000	5	...........	1367.65
	808	0.1618	5.09700E-001	1.30294E-008	0.00000E+000	5.10018E-001	0.00000E+000	5	...........	1367.65
	809	0.162	5.19763E-001	1.29436E-008	0.00000E+000	5.20016E-001	0.00000E+000	5	...........	1367.65
	810	0.1622	5.29745E-001	1.28448E-008	0.00000E+000	5.30013E-001	0.00000E+000	5	...........	1367.65
	811	0.1624	5.39718E-001	1.27334E-008	0.00000E+000	5.40011E-001	0.00000E+000	5	...........	1367.65
	812	0.1626	5.49751E-001	1.26156E-008	0.00000E+000	5.50008E-001	0.00000E+000	5	...........	1367.65
	813	0.1628	5.59724E-001	1.24884E-008	0.00000E+000	5.60006E-001	0.00000E+000	5	...........	1367.65
	814	0.163	5.69746E-001	1.23583E-008	0.00000E+000	5.70003E-001	0.00000E+000	5	...........	1367.65
	815	0.1632	5.79709E-001	1.22224E-008	0.00000E+000	5.80001E-001	0.00000E+000	5	...........	1367.65
	816	0.1634	5.89732E-001	1.20846E-008	0.00000E+000	5.89998E-001	0.00000E+000	5	...........	1367.65
	817	0.1636	5.99734E-001	1.19441E-008	0.00000E+000	5.99995E-001	0.00000E+000	5	...........	1367.65
	818	0.1638	6.09737E-001	1.18026E-008	0.00000E+000	6.09993E-001	0.00000E+000	5	...........	1367.65
	819	0.164	6.19720E-001	1.16624E-008	0.00000E+000	6.19990E-001	0.00000E+000	5	...........	1367.65
	820	0.1642	6.29712E-001	1.15246E-008	0.00000E+000	6.29988E-001	0.00000E+000	5	...........	1367.65
	821	0.1644	6.39745E-001	1.13858E-008	0.00000E+000	6.39985E-001	0.00000E+000	5	...........	1367.65
	822	0.1646	6.49698E-001	1.12493E-008	0.00000E+000	6.49983E-001	0.00000E+000	5	...........	1367.65
	823	0.1648	6.59711E-001	1.11111E-008	0.00000E+000	6.59980E-001	0.00000E+000	5	...........	1367.65
	824	0.165	6.69743E-001	1.09696E-008	0.00000E+000	6.69977E-001	0.00000E+000	5	...........	1367.65
	825	0.1652	6.79756E-001	1.08251E-008	0.00000E+000	6.80025E-001	0.00000E+000	5	...........	1367.65
	826	0.1654	6.89739E-001	1.06786E-008	0.00000E+000	6.90022E-001	0.00000E+000	5	...........	1367.65
	827	0.1656	6.99751E-001	1.05368E-008	0.00000E+000	7.00020E-001	0.00000E+000	5	...........	1367.65
	828	0.1658	7.09774E-001	1.03873E-008	0.00000E+000	7.10017E-001	0.00000E+000	5	...........	1367.65
	829	0.166	7.19737E-001	1.02351E-008	0.00000E+000	7.20015E-001	0.00000E+000	5	...........	1367.65
	830	0.1662	7.29749E-001	1.00853E-008	0.00000E+000	7.30012E-001	0.00000E+000	5	...........	1367.65
	831	0.1664	7.39712E-001	9.93708E-009	0.00000E+000	7.40010E-001	0.00000E+000	5	...........	1367.65
	832	0.1666	7.49725E-001	9.78791E-009	0.00000E+000	7.50007E-001	0.00000E+000	5	...........	1367.65
	833	0.1668	7.59737E-001	9.64074E-009	0.00000E+000	7.60004E-001	0.00000E+000	5	...........	1367.65
	834	0.167	7.69730E-001	9.49723E-009	0.00000E+000	7.70002E-001	0.00000E+000	5	...........	1367.65
	835	0.1672	7.79733E-001	9.36241E-009	0.00000E+000	7.79999E-001	0.00000E+000	5	...........	1367.65
	836	0.1674	7.89705E-001	9.22525E-009	0.00000E+000	7.89997E-001	0.00000E+000	5	...........	1367.65
	837	0.1676	7.99748E-001	9.09777E-009	0.00000E+000	7.99994E-001	0.00000E+000	5	...........	1367.65
CURVE4	TABLE
	Pt	T	Vf	Im	Vu	Sig	Ach	IERange	Over	Temp
	#	s	V vs. Ref.	A	V	V	V	#	bits	deg C
	838	0.1678	7.90446E-001	8.56748E-009	0.00000E+000	7.89997E-001	0.00000E+000	5	...........	1367.65
	839	0.168	7.80393E-001	7.96143E-009	0.00000E+000	7.79999E-001	0.00000E+000	5	...........	1367.65
	840	0.1682	7.70450E-001	7.34638E-009	0.00000E+000	7.70002E-001	0.00000E+000	5	...........	1367.65