File: Test_Data_Files/20250424_L_CHI105_12,5umAu_E000_PBSarg_CV500.DTA
EXPLAIN
TAG	CV
TITLE	LABEL	Cyclic Voltammetry	Test &Identifier
DATE	LABEL	4/24/2025	Date
TIME	LABEL	13:28:02	Time
NOTES	NOTES	3	&Notes...

PSTAT	PSTAT	IFC1010-32247	Potentiostat
VINIT	POTEN	0.00000E+000	T	Initial &E (V)
VLIMIT1	POTEN	-6.00000E-001	F	Scan Limit &1 (V)
VLIMIT2	POTEN	8.00000E-001	F	Scan Limit &2 (V)
VFINAL	POTEN	0.00000E+000	T	Final &E (V)
SCANRATE	QUANT	4.99999E+002	&Scan Rate (mV/s)
STEPSIZE	QUANT	1.00000E+001	St&ep Size (mV)
CYCLES	IQUANT	3	C&ycles (#)
IMODE	SELECTOR	1	I/E Range &Mode
IRANGE	QUANT	1.00000E-007	&Max Current (mA)
AREA	QUANT	1.00000E+000	Electrode &Area (cm^2)
ELECTRODETYPE	SELECTOR	0	Electrode Type
STRIPPING	TOGGLE	F	Used for Stripping
CONDIT	TWOPARAM	F	1.50000E+001	0.00000E+000	Conditionin&g	Time(s)	E(V)
DELAY	TWOPARAM	T	1.50000E+001	0.00000E+000	Init. De&lay	Time(s)	Stab.(mV/s)
EQDELAY	QUANT	0.00000E+000	Equil. &Time (s)
IRCOMP	SELECTOR	0	IRCom&p
PFCOR	QUANT	5.00000E+001	PF Corr. (ohm)
SAMPLINGMODE	SELECTOR	2	Sampling &Mode
OCVCURVE	TABLE	58
	Pt	T	Vf	Vm	Ach	Over	Temp
	#	s	V vs. Ref.	V	V	bits	deg C
	0	0.258333	5.44689E-001	5.44689E-001	0.00000E+000	...........	1367.65
	1	0.516667	5.44750E-001	5.47871E-001	0.00000E+000	...........	1367.65
	2	0.775	5.45129E-001	5.51170E-001	0.00000E+000	...........	1367.65
	3	1.03333	5.46221E-001	5.54527E-001	0.00000E+000	...........	1367.65
	4	1.29167	5.48229E-001	5.57845E-001	0.00000E+000	...........	1367.65
	5	1.55	5.50990E-001	5.61168E-001	0.00000E+000	...........	1367.65
	6	1.80833	5.54176E-001	5.64679E-001	0.00000E+000	...........	1367.65
	7	2.06667	5.57536E-001	5.68088E-001	0.00000E+000	...........	1367.65
	8	2.325	5.60952E-001	5.71560E-001	0.00000E+000	...........	1367.65
	9	2.58333	5.64387E-001	5.74932E-001	0.00000E+000	...........	1367.65
	10	2.84167	5.67822E-001	5.78219E-001	0.00000E+000	...........	1367.65
	11	3.1	5.71236E-001	5.81472E-001	0.00000E+000	...........	1367.65
	12	3.35833	5.74610E-001	5.84827E-001	0.00000E+000	...........	1367.51
	13	3.61667	5.77946E-001	5.88256E-001	0.00000E+000	...........	1367.48
	14	3.875	5.81273E-001	5.91660E-001	0.00000E+000	...........	1367.48
	15	4.13333	5.84618E-001	5.94990E-001	0.00000E+000	...........	1367.48
	16	4.39167	5.87988E-001	5.98469E-001	0.00000E+000	...........	1367.57
	17	4.65	5.91375E-001	6.01905E-001	0.00000E+000	...........	1367.57
	18	4.90833	5.94778E-001	6.05227E-001	0.00000E+000	...........	1367.57
	19	5.16667	5.98186E-001	6.08556E-001	0.00000E+000	...........	1367.57
	20	5.425	6.01577E-001	6.11714E-001	0.00000E+000	...........	1367.65
	21	5.68333	6.04929E-001	6.14975E-001	0.00000E+000	...........	1367.65
	22	5.94167	6.08229E-001	6.18222E-001	0.00000E+000	...........	1367.65
	23	6.2	6.11489E-001	6.21451E-001	0.00000E+000	...........	1367.65
	24	6.45833	6.14729E-001	6.24615E-001	0.00000E+000	...........	1367.65
	25	6.71667	6.17953E-001	6.27604E-001	0.00000E+000	...........	1367.65
	26	6.975	6.21144E-001	6.30630E-001	0.00000E+000	...........	1367.65
	27	7.23333	6.24277E-001	6.33527E-001	0.00000E+000	...........	1367.65
	28	7.49167	6.27342E-001	6.36451E-001	0.00000E+000	...........	1367.65
	29	7.75	6.30344E-001	6.39393E-001	0.00000E+000	...........	1367.65
	30	8.00833	6.33303E-001	6.42355E-001	0.00000E+000	...........	1367.65
	31	8.26667	6.36241E-001	6.45257E-001	0.00000E+000	...........	1367.65
	32	8.525	6.39175E-001	6.48232E-001	0.00000E+000	...........	1367.65
	33	8.78333	6.42110E-001	6.51102E-001	0.00000E+000	...........	1367.65
	34	9.04167	6.45041E-001	6.53893E-001	0.00000E+000	...........	1367.65
	35	9.3	6.47949E-001	6.56576E-001	0.00000E+000	...........	1367.65
	36	9.5583	6.50809E-001	6.59159E-001	0.00000E+000	...........	1367.65
	37	9.8167	6.53595E-001	6.61714E-001	0.00000E+000	...........	1367.65
	38	10.075	6.56293E-001	6.63952E-001	0.00000E+000	...........	1367.65
	39	10.3333	6.58892E-001	6.66450E-001	0.00000E+000	...........	1367.50
	40	10.5917	6.61398E-001	6.68839E-001	0.00000E+000	...........	1367.22
	41	10.85	6.63837E-001	6.71150E-001	0.00000E+000	...........	1367.22
	42	11.1083	6.66238E-001	6.73469E-001	0.00000E+000	...........	1367.22
	43	11.3667	6.68610E-001	6.75662E-001	0.00000E+000	...........	1367.57
	44	11.625	6.70945E-001	6.77957E-001	0.00000E+000	...........	1367.57
	45	11.8833	6.73243E-001	6.80186E-001	0.00000E+000	...........	1367.57
	46	12.1417	6.75511E-001	6.82359E-001	0.00000E+000	...........	1367.57
	47	12.4	6.77757E-001	6.84495E-001	0.00000E+000	...........	1367.57
	48	12.6583	6.79974E-001	6.86552E-001	0.00000E+000	...........	1367.57
	49	12.9167	6.82154E-001	6.88727E-001	0.00000E+000	...........	1367.57
	50	13.175	6.84300E-001	6.90851E-001	0.00000E+000	...........	1367.57
	51	13.4333	6.86427E-001	6.92830E-001	0.00000E+000	...........	1367.65
	52	13.6917	6.88537E-001	6.94877E-001	0.00000E+000	...........	1367.65
	53	13.95	6.90619E-001	6.96746E-001	0.00000E+000	...........	1367.65
	54	14.2083	6.92658E-001	6.98614E-001	0.00000E+000	...........	1367.65
	55	14.4667	6.94641E-001	7.00405E-001	0.00000E+000	...........	1367.65
	56	14.725	6.96564E-001	7.02206E-001	0.00000E+000	...........	1367.65
	57	14.9833	6.98433E-001	7.04015E-001	0.00000E+000	...........	1367.65
EOC	QUANT	0.698433	Open Circuit (V)
PSTATMODEL	IQUANT	64	Pstat Model
PSTATSECTION	LABEL	IFC1010-32247	Pstat Section
PSTATSERIALNO	LABEL	32247	Pstat Serial Number
CTRLMODE	IQUANT	1	Control Mode
ELECTROMETER	IQUANT	0	RE=0 or CS=1
IESTAB	IQUANT	2	I/E Stability
CASPEED	IQUANT	4	Control Amp Speed
CONVENTION	IQUANT	1	Current Convention
ICHRANGE	IQUANT	2	Ich Range
ICHRANGEMODE	TOGGLE	F	Ich Auto Range
ICHOFFSETENABLE	TOGGLE	F	Ich Offset Enable
ICHOFFSET	QUANT	0	Ich Offset (V)
ICHFILTER	IQUANT	3	Ich Filter
VCHRANGE	IQUANT	2	Vch Range
VCHRANGEMODE	TOGGLE	F	Vch Auto Range
VCHOFFSETENABLE	TOGGLE	F	Vch Offset Enable
VCHOFFSET	QUANT	0	Vch Offset (V)
VCHFILTER	IQUANT	3	Vch Filter
IERANGELOWERLIMIT	IQUANT	4	I/E Range Lower Limit
IERANGEMODE	TOGGLE	F	I/E AutoRange
IERANGE	IQUANT	4	I/E Range
ACHSELECT	IQUANT	0	Ach Select
ACHRANGE	IQUANT	2	Ach Range
ACHOFFSETENABLE	TOGGLE	F	Ach Offset Enable
ACHOFFSET	QUANT	0	Ach Offset (V)
ACHFILTER	IQUANT	1	Ach Filter
SENSECABLEID	IQUANT	14	Sense Cable ID
PWRCABLEID	IQUANT	14	Power Cable ID
DCCALDATE	LABEL	11/18/2024	DC Calibration Date
ACCALDATE	LABEL	4/18/2022	AC Calibration Date
FRAMEWORKVERSION	LABEL	7.10.3	Framework Version
INSTRUMENTVERSION	LABEL	4.91	Instrument Version
COMMVERSION	LABEL	3.10	Communications Version
CPUPLDVERSION	LABEL	2.22	CPU PLD Version
CTRLPLDVERSION	LABEL	0.00	CTRL PLD Version
PSTATPLDVERSION	LABEL	0.00	PSTAT PLD Version
CURVE1	TABLE
	Pt	T	Vf	Im	Vu	Sig	Ach	IERange	Over	Temp
	#	s	V vs. Ref.	A	V	V	V	#	bits	deg C
	0	0.02	6.98511E-001	-1.10032E-011	0.00000E+000	6.98420E-001	0.00000E+000	4	...........	1367.65
	1	0.04	6.88620E-001	-2.65072E-011	0.00000E+000	6.88423E-001	0.00000E+000	4	...........	1367.65
	2	0.06	6.78642E-001	-3.88035E-011	0.00000E+000	6.78425E-001	0.00000E+000	4	...........	1367.65
	3	0.08	6.68631E-001	-4.83796E-011	0.00000E+000	6.68428E-001	0.00000E+000	4	...........	1367.65
	4	0.1	6.58614E-001	-5.65683E-011	0.00000E+000	6.58430E-001	0.00000E+000	4	...........	1367.65
	5	0.12	6.48623E-001	-6.37396E-011	0.00000E+000	6.48433E-001	0.00000E+000	4	...........	1367.65
	6	0.14	6.38604E-001	-6.97937E-011	0.00000E+000	6.38436E-001	0.00000E+000	4	...........	1367.65
	7	0.16	6.28637E-001	-7.54128E-011	0.00000E+000	6.28438E-001	0.00000E+000	4	...........	1367.65
	8	0.18	6.18644E-001	-8.02587E-011	0.00000E+000	6.18441E-001	0.00000E+000	4	...........	1367.65
	9	0.2	6.08646E-001	-8.46152E-011	0.00000E+000	6.08443E-001	0.00000E+000	4	...........	1367.65
	10	0.22	5.98635E-001	-8.86271E-011	0.00000E+000	5.98446E-001	0.00000E+000	4	...........	1367.65
	11	0.24	5.88647E-001	-9.21563E-011	0.00000E+000	5.88448E-001	0.00000E+000	4	...........	1367.65
	12	0.26	5.78649E-001	-9.54419E-011	0.00000E+000	5.78451E-001	0.00000E+000	4	...........	1367.65
	13	0.28	5.68658E-001	-9.85475E-011	0.00000E+000	5.68453E-001	0.00000E+000	4	...........	1367.65
	14	0.3	5.58641E-001	-1.01547E-010	0.00000E+000	5.58456E-001	0.00000E+000	4	...........	1367.65
	15	0.32	5.48607E-001	-1.04589E-010	0.00000E+000	5.48409E-001	0.00000E+000	4	...........	1367.65
	16	0.34	5.38624E-001	-1.07643E-010	0.00000E+000	5.38411E-001	0.00000E+000	4	...........	1367.65
	17	0.36	5.28617E-001	-1.11016E-010	0.00000E+000	5.28414E-001	0.00000E+000	4	...........	1367.65
	18	0.38	5.18599E-001	-1.14105E-010	0.00000E+000	5.18416E-001	0.00000E+000	4	...........	1367.65
	19	0.4	5.08601E-001	-1.17673E-010	0.00000E+000	5.08419E-001	0.00000E+000	4	...........	1367.65
	20	0.42	4.98592E-001	-1.21219E-010	0.00000E+000	4.98421E-001	0.00000E+000	4	...........	1367.65
	21	0.44	4.88632E-001	-1.25076E-010	0.00000E+000	4.88424E-001	0.00000E+000	4	...........	1367.65
	22	0.46	4.78619E-001	-1.29335E-010	0.00000E+000	4.78427E-001	0.00000E+000	4	...........	1367.65
	23	0.48	4.68614E-001	-1.34000E-010	0.00000E+000	4.68429E-001	0.00000E+000	4	...........	1367.65
	24	0.5	4.58603E-001	-1.38979E-010	0.00000E+000	4.58432E-001	0.00000E+000	4	...........	1367.65
	25	0.52	4.48617E-001	-1.43920E-010	0.00000E+000	4.48434E-001	0.00000E+000	4	...........	1367.65
	26	0.54	4.38618E-001	-1.48511E-010	0.00000E+000	4.38437E-001	0.00000E+000	4	...........	1367.65
	27	0.56	4.28627E-001	-1.53301E-010	0.00000E+000	4.28439E-001	0.00000E+000	4	...........	1367.65
	28	0.58	4.18623E-001	-1.57945E-010	0.00000E+000	4.18442E-001	0.00000E+000	4	...........	1367.65
	29	0.6	4.08628E-001	-1.62894E-010	0.00000E+000	4.08444E-001	0.00000E+000	4	...........	1367.65
	30	0.62	3.98623E-001	-1.68018E-010	0.00000E+000	3.98447E-001	0.00000E+000	4	...........	1367.65
	31	0.64	3.88628E-001	-1.73234E-010	0.00000E+000	3.88450E-001	0.00000E+000	4	...........	1367.65
	32	0.66	3.78623E-001	-1.78763E-010	0.00000E+000	3.78452E-001	0.00000E+000	4	...........	1367.65
	33	0.68	3.68640E-001	-1.84227E-010	0.00000E+000	3.68455E-001	0.00000E+000	4	...........	1367.65
	34	0.7	3.58634E-001	-1.89960E-010	0.00000E+000	3.58457E-001	0.00000E+000	4	...........	1367.65
	35	0.72	3.48587E-001	-1.95724E-010	0.00000E+000	3.48410E-001	0.00000E+000	4	...........	1367.65
	36	0.74	3.38578E-001	-2.00798E-010	0.00000E+000	3.38412E-001	0.00000E+000	4	...........	1367.65
	37	0.76	3.28572E-001	-2.06142E-010	0.00000E+000	3.28415E-001	0.00000E+000	4	...........	1367.65
	38	0.78	3.18572E-001	-2.11142E-010	0.00000E+000	3.18417E-001	0.00000E+000	4	...........	1367.65
	39	0.8	3.08595E-001	-2.15895E-010	0.00000E+000	3.08420E-001	0.00000E+000	4	...........	1367.65
	40	0.82	2.98593E-001	-2.20080E-010	0.00000E+000	2.98423E-001	0.00000E+000	4	...........	1367.65
	41	0.84	2.88595E-001	-2.23395E-010	0.00000E+000	2.88425E-001	0.00000E+000	4	...........	1367.65
	42	0.86	2.78583E-001	-2.26339E-010	0.00000E+000	2.78428E-001	0.00000E+000	4	...........	1367.65
	43	0.88	2.68593E-001	-2.28611E-010	0.00000E+000	2.68430E-001	0.00000E+000	4	...........	1367.65
	44	0.9	2.58595E-001	-2.30619E-010	0.00000E+000	2.58433E-001	0.00000E+000	4	...........	1367.65
	45	0.92	2.48599E-001	-2.32600E-010	0.00000E+000	2.48435E-001	0.00000E+000	4	...........	1367.65
	46	0.94	2.38598E-001	-2.34865E-010	0.00000E+000	2.38438E-001	0.00000E+000	4	...........	1367.65
	47	0.96	2.28595E-001	-2.36335E-010	0.00000E+000	2.28440E-001	0.00000E+000	4	...........	1367.65
	48	0.98	2.18597E-001	-2.37623E-010	0.00000E+000	2.18443E-001	0.00000E+000	4	...........	1367.65
	49	1	2.08595E-001	-2.38858E-010	0.00000E+000	2.08446E-001	0.00000E+000	4	...........	1367.65
	50	1.02	1.98593E-001	-2.40031E-010	0.00000E+000	1.98448E-001	0.00000E+000	4	...........	1367.65
	51	1.04	1.88597E-001	-2.41488E-010	0.00000E+000	1.88451E-001	0.00000E+000	4	...........	1367.65
	52	1.06	1.78583E-001	-2.42304E-010	0.00000E+000	1.78453E-001	0.00000E+000	4	...........	1367.65
	53	1.08	1.68602E-001	-2.42438E-010	0.00000E+000	1.68456E-001	0.00000E+000	4	...........	1367.65
	54	1.1	1.58600E-001	-2.42186E-010	0.00000E+000	1.58458E-001	0.00000E+000	4	...........	1367.65
	55	1.12	1.48555E-001	-2.41947E-010	0.00000E+000	1.48411E-001	0.00000E+000	4	...........	1367.65
	56	1.14	1.38552E-001	-2.41155E-010	0.00000E+000	1.38414E-001	0.00000E+000	4	...........	1367.65
	57	1.16	1.28573E-001	-2.39974E-010	0.00000E+000	1.28416E-001	0.00000E+000	4	...........	1367.65
	58	1.18	1.18576E-001	-2.39203E-010	0.00000E+000	1.18419E-001	0.00000E+000	4	...........	1367.65
	59	1.2	1.08585E-001	-2.38247E-010	0.00000E+000	1.08421E-001	0.00000E+000	4	...........	1367.65
	60	1.22	9.85560E-002	-2.36886E-010	0.00000E+000	9.84238E-002	0.00000E+000	4	...........	1367.65
	61	1.24	8.85609E-002	-2.35853E-010	0.00000E+000	8.84263E-002	0.00000E+000	4	...........	1367.65
	62	1.26	7.85749E-002	-2.34873E-010	0.00000E+000	7.84289E-002	0.00000E+000	4	...........	1367.65
	63	1.28	6.85714E-002	-2.33607E-010	0.00000E+000	6.84315E-002	0.00000E+000	4	...........	1367.65
	64	1.3	5.85710E-002	-2.32106E-010	0.00000E+000	5.84340E-002	0.00000E+000	4	...........	1367.65
	65	1.32	4.85676E-002	-2.30778E-010	0.00000E+000	4.84366E-002	0.00000E+000	4	...........	1367.65
	66	1.34	3.85914E-002	-2.29374E-010	0.00000E+000	3.84391E-002	0.00000E+000	4	...........	1367.65
	67	1.36	2.86010E-002	-2.28322E-010	0.00000E+000	2.84417E-002	0.00000E+000	4	...........	1367.65
	68	1.38	1.85765E-002	-2.28165E-010	0.00000E+000	1.84442E-002	0.00000E+000	4	...........	1367.65
	69	1.4	8.58956E-003	-2.28421E-010	0.00000E+000	8.44681E-003	0.00000E+000	4	...........	1367.65
	70	1.42	-1.41860E-003	-2.28936E-010	0.00000E+000	-1.55063E-003	0.00000E+000	4	...........	1367.65
	71	1.44	-1.14107E-002	-2.30036E-010	0.00000E+000	-1.15481E-002	0.00000E+000	4	...........	1367.65
	72	1.46	-2.14297E-002	-2.31290E-010	0.00000E+000	-2.15455E-002	0.00000E+000	4	...........	1367.65
	73	1.48	-3.14271E-002	-2.33226E-010	0.00000E+000	-3.15430E-002	0.00000E+000	4	...........	1367.65
	74	1.5	-4.14706E-002	-2.34997E-010	0.00000E+000	-4.15904E-002	0.00000E+000	4	...........	1367.65
	75	1.52	-5.14745E-002	-2.37464E-010	0.00000E+000	-5.15878E-002	0.00000E+000	4	...........	1367.65
	76	1.54	-6.14692E-002	-2.39575E-010	0.00000E+000	-6.15853E-002	0.00000E+000	4	...........	1367.65
	77	1.56	-7.14559E-002	-2.42938E-010	0.00000E+000	-7.15827E-002	0.00000E+000	4	...........	1367.30
	78	1.58	-8.14551E-002	-2.46353E-010	0.00000E+000	-8.15801E-002	0.00000E+000	4	...........	1366.62
	79	1.6	-9.14693E-002	-2.49619E-010	0.00000E+000	-9.15776E-002	0.00000E+000	4	...........	1366.62
	80	1.62	-1.01444E-001	-2.53124E-010	0.00000E+000	-1.01575E-001	0.00000E+000	4	...........	1366.62
	81	1.64	-1.11436E-001	-2.56013E-010	0.00000E+000	-1.11572E-001	0.00000E+000	4	...........	1366.62
	82	1.66	-1.21436E-001	-2.58977E-010	0.00000E+000	-1.21570E-001	0.00000E+000	4	...........	1366.62
	83	1.68	-1.31452E-001	-2.61923E-010	0.00000E+000	-1.31567E-001	0.00000E+000	4	...........	1366.62
	84	1.7	-1.41461E-001	-2.64987E-010	0.00000E+000	-1.41565E-001	0.00000E+000	4	...........	1366.62
	85	1.72	-1.51438E-001	-2.68389E-010	0.00000E+000	-1.51562E-001	0.00000E+000	4	...........	1366.62
	86	1.74	-1.61443E-001	-2.71481E-010	0.00000E+000	-1.61560E-001	0.00000E+000	4	...........	1366.62
	87	1.76	-1.71434E-001	-2.75799E-010	0.00000E+000	-1.71557E-001	0.00000E+000	4	...........	1366.62
	88	1.78	-1.81469E-001	-2.81101E-010	0.00000E+000	-1.81555E-001	0.00000E+000	4	...........	1366.62
	89	1.8	-1.91425E-001	-2.86379E-010	0.00000E+000	-1.91552E-001	0.00000E+000	4	...........	1366.62
	90	1.82	-2.01435E-001	-2.90751E-010	0.00000E+000	-2.01549E-001	0.00000E+000	4	...........	1366.62
	91	1.84	-2.11428E-001	-2.94577E-010	0.00000E+000	-2.11547E-001	0.00000E+000	4	...........	1366.62
	92	1.86	-2.21432E-001	-2.99386E-010	0.00000E+000	-2.21544E-001	0.00000E+000	4	...........	1366.62
	93	1.88	-2.31442E-001	-3.03259E-010	0.00000E+000	-2.31542E-001	0.00000E+000	4	...........	1366.62
	94	1.9	-2.41461E-001	-3.08348E-010	0.00000E+000	-2.41589E-001	0.00000E+000	4	...........	1366.62
	95	1.92	-2.51449E-001	-3.13140E-010	0.00000E+000	-2.51587E-001	0.00000E+000	4	...........	1366.62
	96	1.94	-2.61450E-001	-3.15814E-010	0.00000E+000	-2.61584E-001	0.00000E+000	4	...........	1366.62
	97	1.96	-2.71451E-001	-3.18234E-010	0.00000E+000	-2.71582E-001	0.00000E+000	4	...........	1366.62
	98	1.98	-2.81446E-001	-3.20350E-010	0.00000E+000	-2.81579E-001	0.00000E+000	4	...........	1366.62
	99	2	-2.91450E-001	-3.22035E-010	0.00000E+000	-2.91576E-001	0.00000E+000	4	...........	1366.62
	100	2.02	-3.01440E-001	-3.23308E-010	0.00000E+000	-3.01574E-001	0.00000E+000	4	...........	1366.62
	101	2.04	-3.11442E-001	-3.24726E-010	0.00000E+000	-3.11571E-001	0.00000E+000	4	...........	1366.62
	102	2.06	-3.21452E-001	-3.28046E-010	0.00000E+000	-3.21569E-001	0.00000E+000	4	...........	1366.62
	103	2.08	-3.31419E-001	-3.30674E-010	0.00000E+000	-3.31566E-001	0.00000E+000	4	...........	1366.62
	104	2.1	-3.41432E-001	-3.35047E-010	0.00000E+000	-3.41564E-001	0.00000E+000	4	...........	1366.62
	105	2.12	-3.51447E-001	-3.36651E-010	0.00000E+000	-3.51561E-001	0.00000E+000	4	...........	1366.62
	106	2.14	-3.61454E-001	-3.36779E-010	0.00000E+000	-3.61558E-001	0.00000E+000	4	...........	1366.62
	107	2.16	-3.71413E-001	-3.37203E-010	0.00000E+000	-3.71556E-001	0.00000E+000	4	...........	1366.62
	108	2.18	-3.81429E-001	-3.37523E-010	0.00000E+000	-3.81553E-001	0.00000E+000	4	...........	1366.62
	109	2.2	-3.91443E-001	-3.39390E-010	0.00000E+000	-3.91551E-001	0.00000E+000	4	...........	1366.62
	110	2.22	-4.01433E-001	-3.42741E-010	0.00000E+000	-4.01548E-001	0.00000E+000	4	...........	1366.62
	111	2.24	-4.11441E-001	-3.45795E-010	0.00000E+000	-4.11546E-001	0.00000E+000	4	...........	1366.62
	112	2.26	-4.21420E-001	-3.49437E-010	0.00000E+000	-4.21543E-001	0.00000E+000	4	...........	1366.62
	113	2.28	-4.31431E-001	-3.53301E-010	0.00000E+000	-4.31541E-001	0.00000E+000	4	...........	1366.62
	114	2.3	-4.41487E-001	-3.56653E-010	0.00000E+000	-4.41588E-001	0.00000E+000	4	...........	1366.62
	115	2.32	-4.51482E-001	-3.59160E-010	0.00000E+000	-4.51585E-001	0.00000E+000	4	...........	1366.62
	116	2.34	-4.61518E-001	-3.60683E-010	0.00000E+000	-4.61583E-001	0.00000E+000	4	...........	1366.62
	117	2.36	-4.71472E-001	-3.64379E-010	0.00000E+000	-4.71580E-001	0.00000E+000	4	...........	1366.62
	118	2.38	-4.81469E-001	-3.70294E-010	0.00000E+000	-4.81578E-001	0.00000E+000	4	...........	1366.62
	119	2.4	-4.91491E-001	-3.74906E-010	0.00000E+000	-4.91575E-001	0.00000E+000	4	...........	1366.62
	120	2.42	-5.01492E-001	-3.79257E-010	0.00000E+000	-5.01573E-001	0.00000E+000	4	...........	1366.62
	121	2.44	-5.11467E-001	-3.84499E-010	0.00000E+000	-5.11570E-001	0.00000E+000	4	...........	1366.62
	122	2.46	-5.21439E-001	-3.91530E-010	0.00000E+000	-5.21568E-001	0.00000E+000	4	...........	1366.62
	123	2.48	-5.31445E-001	-3.95449E-010	0.00000E+000	-5.31565E-001	0.00000E+000	4	...........	1366.62
	124	2.5	-5.41461E-001	-3.98320E-010	0.00000E+000	-5.41562E-001	0.00000E+000	4	...........	1366.62
	125	2.52	-5.51457E-001	-4.02148E-010	0.00000E+000	-5.51560E-001	0.00000E+000	4	...........	1366.62
	126	2.54	-5.61445E-001	-4.06805E-010	0.00000E+000	-5.61557E-001	0.00000E+000	4	...........	1366.62
	127	2.56	-5.71458E-001	-4.13312E-010	0.00000E+000	-5.71555E-001	0.00000E+000	4	...........	1366.56
	128	2.58	-5.81466E-001	-4.19609E-010	0.00000E+000	-5.81552E-001	0.00000E+000	4	...........	1366.45
	129	2.6	-5.91462E-001	-4.26269E-010	0.00000E+000	-5.91550E-001	0.00000E+000	4	...........	1366.45
	130	2.62	-6.01448E-001	-4.35801E-010	0.00000E+000	-6.01547E-001	0.00000E+000	4	...........	1366.45
	131	2.64	-5.91666E-001	-3.98787E-010	0.00000E+000	-5.91550E-001	0.00000E+000	4	...........	1366.45
	132	2.66	-5.81670E-001	-3.69402E-010	0.00000E+000	-5.81552E-001	0.00000E+000	4	...........	1366.45
	133	2.68	-5.71662E-001	-3.48070E-010	0.00000E+000	-5.71555E-001	0.00000E+000	4	...........	1366.45
	134	2.7	-5.61673E-001	-3.32030E-010	0.00000E+000	-5.61557E-001	0.00000E+000	4	...........	1366.45
	135	2.72	-5.51693E-001	-3.18254E-010	0.00000E+000	-5.51560E-001	0.00000E+000	4	...........	1366.45
	136	2.74	-5.41672E-001	-3.06964E-010	0.00000E+000	-5.41562E-001	0.00000E+000	4	...........	1366.45
	137	2.76	-5.31642E-001	-2.94581E-010	0.00000E+000	-5.31565E-001	0.00000E+000	4	...........	1366.45
	138	2.78	-5.21651E-001	-2.81278E-010	0.00000E+000	-5.21568E-001	0.00000E+000	4	...........	1366.45
	139	2.8	-5.11678E-001	-2.69602E-010	0.00000E+000	-5.11570E-001	0.00000E+000	4	...........	1366.45
	140	2.82	-5.01694E-001	-2.59050E-010	0.00000E+000	-5.01573E-001	0.00000E+000	4	...........	1366.45
	141	2.84	-4.91692E-001	-2.49213E-010	0.00000E+000	-4.91575E-001	0.00000E+000	4	...........	1366.45
	142	2.86	-4.81685E-001	-2.37913E-010	0.00000E+000	-4.81578E-001	0.00000E+000	4	...........	1366.45
	143	2.88	-4.71682E-001	-2.27854E-010	0.00000E+000	-4.71580E-001	0.00000E+000	4	...........	1366.45
	144	2.9	-4.61717E-001	-2.18402E-010	0.00000E+000	-4.61583E-001	0.00000E+000	4	...........	1366.45
	145	2.92	-4.51690E-001	-2.08550E-010	0.00000E+000	-4.51585E-001	0.00000E+000	4	...........	1366.45
	146	2.94	-4.41699E-001	-1.98321E-010	0.00000E+000	-4.41588E-001	0.00000E+000	4	...........	1366.45
	147	2.96	-4.31640E-001	-1.88370E-010	0.00000E+000	-4.31541E-001	0.00000E+000	4	...........	1366.45
	148	2.98	-4.21652E-001	-1.78605E-010	0.00000E+000	-4.21543E-001	0.00000E+000	4	...........	1366.45
	149	3	-4.11673E-001	-1.68848E-010	0.00000E+000	-4.11546E-001	0.00000E+000	4	...........	1366.45
	150	3.02	-4.01659E-001	-1.59227E-010	0.00000E+000	-4.01548E-001	0.00000E+000	4	...........	1366.45
	151	3.04	-3.91661E-001	-1.50126E-010	0.00000E+000	-3.91551E-001	0.00000E+000	4	...........	1366.45
	152	3.06	-3.81660E-001	-1.41130E-010	0.00000E+000	-3.81553E-001	0.00000E+000	4	...........	1366.45
	153	3.08	-3.71660E-001	-1.32639E-010	0.00000E+000	-3.71556E-001	0.00000E+000	4	...........	1366.45
	154	3.1	-3.61686E-001	-1.23479E-010	0.00000E+000	-3.61558E-001	0.00000E+000	4	...........	1366.45
	155	3.12	-3.51682E-001	-1.14847E-010	0.00000E+000	-3.51561E-001	0.00000E+000	4	...........	1366.45
	156	3.14	-3.41687E-001	-1.06575E-010	0.00000E+000	-3.41564E-001	0.00000E+000	4	...........	1366.45
	157	3.16	-3.31660E-001	-9.84021E-011	0.00000E+000	-3.31566E-001	0.00000E+000	4	...........	1366.45
	158	3.18	-3.21672E-001	-9.05005E-011	0.00000E+000	-3.21569E-001	0.00000E+000	4	...........	1366.45
	159	3.2	-3.11675E-001	-8.29888E-011	0.00000E+000	-3.11571E-001	0.00000E+000	4	...........	1366.45
	160	3.22	-3.01684E-001	-7.56132E-011	0.00000E+000	-3.01574E-001	0.00000E+000	4	...........	1366.45
	161	3.24	-2.91682E-001	-6.80476E-011	0.00000E+000	-2.91576E-001	0.00000E+000	4	...........	1366.45
	162	3.26	-2.81684E-001	-6.09875E-011	0.00000E+000	-2.81579E-001	0.00000E+000	4	...........	1366.45
	163	3.28	-2.71686E-001	-5.38728E-011	0.00000E+000	-2.71582E-001	0.00000E+000	4	...........	1366.45
	164	3.3	-2.61689E-001	-4.73028E-011	0.00000E+000	-2.61584E-001	0.00000E+000	4	...........	1366.45
	165	3.32	-2.51686E-001	-4.10598E-011	0.00000E+000	-2.51587E-001	0.00000E+000	4	...........	1366.45
	166	3.34	-2.41696E-001	-3.45112E-011	0.00000E+000	-2.41589E-001	0.00000E+000	4	...........	1366.45
	167	3.36	-2.31666E-001	-2.81183E-011	0.00000E+000	-2.31542E-001	0.00000E+000	4	...........	1366.45
	168	3.38	-2.21658E-001	-2.22724E-011	0.00000E+000	-2.21544E-001	0.00000E+000	4	...........	1366.45
	169	3.4	-2.11637E-001	-1.75746E-011	0.00000E+000	-2.11547E-001	0.00000E+000	4	...........	1366.45
	170	3.42	-2.01646E-001	-1.24249E-011	0.00000E+000	-2.01549E-001	0.00000E+000	4	...........	1366.45
	171	3.44	-1.91644E-001	-7.14171E-012	0.00000E+000	-1.91552E-001	0.00000E+000	4	...........	1366.45
	172	3.46	-1.81678E-001	-2.22073E-012	0.00000E+000	-1.81555E-001	0.00000E+000	4	...........	1366.45
	173	3.48	-1.71650E-001	2.93212E-012	0.00000E+000	-1.71557E-001	0.00000E+000	4	...........	1366.45
	174	3.5	-1.61667E-001	7.62094E-012	0.00000E+000	-1.61560E-001	0.00000E+000	4	...........	1366.45
	175	3.52	-1.51666E-001	1.24459E-011	0.00000E+000	-1.51562E-001	0.00000E+000	4	...........	1366.45
	176	3.54	-1.41668E-001	1.75011E-011	0.00000E+000	-1.41565E-001	0.00000E+000	4	...........	1366.45
	177	3.56	-1.31674E-001	2.18688E-011	0.00000E+000	-1.31567E-001	0.00000E+000	4	...........	1366.52
	178	3.58	-1.21680E-001	2.66647E-011	0.00000E+000	-1.21570E-001	0.00000E+000	4	...........	1366.62
	179	3.6	-1.11676E-001	3.11616E-011	0.00000E+000	-1.11572E-001	0.00000E+000	4	...........	1366.62
	180	3.62	-1.01684E-001	3.48847E-011	0.00000E+000	-1.01575E-001	0.00000E+000	4	...........	1366.62
	181	3.64	-9.17031E-002	3.83834E-011	0.00000E+000	-9.15776E-002	0.00000E+000	4	...........	1366.62
	182	3.66	-8.16947E-002	4.21367E-011	0.00000E+000	-8.15801E-002	0.00000E+000	4	...........	1366.62
	183	3.68	-7.16991E-002	4.55453E-011	0.00000E+000	-7.15827E-002	0.00000E+000	4	...........	1366.62
	184	3.7	-6.17070E-002	4.92045E-011	0.00000E+000	-6.15853E-002	0.00000E+000	4	...........	1366.62
	185	3.72	-5.17163E-002	5.32170E-011	0.00000E+000	-5.15878E-002	0.00000E+000	4	...........	1366.62
	186	3.74	-4.17073E-002	5.69378E-011	0.00000E+000	-4.15904E-002	0.00000E+000	4	...........	1366.62
	187	3.76	-3.16479E-002	6.09520E-011	0.00000E+000	-3.15430E-002	0.00000E+000	4	...........	1366.62
	188	3.78	-2.16396E-002	6.46298E-011	0.00000E+000	-2.15455E-002	0.00000E+000	4	...........	1366.62
	189	3.8	-1.16454E-002	6.84327E-011	0.00000E+000	-1.15481E-002	0.00000E+000	4	...........	1366.62
	190	3.82	-1.66659E-003	7.20082E-011	0.00000E+000	-1.55063E-003	0.00000E+000	4	...........	1366.62
	191	3.84	8.35151E-003	7.60319E-011	0.00000E+000	8.44681E-003	0.00000E+000	4	...........	1366.62
	192	3.86	1.83477E-002	8.02550E-011	0.00000E+000	1.84442E-002	0.00000E+000	4	...........	1366.62
	193	3.88	2.83670E-002	8.41460E-011	0.00000E+000	2.84417E-002	0.00000E+000	4	...........	1366.62
	194	3.9	3.83583E-002	8.85034E-011	0.00000E+000	3.84391E-002	0.00000E+000	4	...........	1366.62
	195	3.92	4.83455E-002	9.27005E-011	0.00000E+000	4.84366E-002	0.00000E+000	4	...........	1366.62
	196	3.94	5.83502E-002	9.70967E-011	0.00000E+000	5.84340E-002	0.00000E+000	4	...........	1366.62
	197	3.96	6.83583E-002	1.01712E-010	0.00000E+000	6.84315E-002	0.00000E+000	4	...........	1366.62
	198	3.98	7.83619E-002	1.05977E-010	0.00000E+000	7.84289E-002	0.00000E+000	4	...........	1366.62
	199	4	8.83440E-002	1.10653E-010	0.00000E+000	8.84263E-002	0.00000E+000	4	...........	1366.62
	200	4.02	9.83379E-002	1.15269E-010	0.00000E+000	9.84238E-002	0.00000E+000	4	...........	1366.62
	201	4.04	1.08349E-001	1.20005E-010	0.00000E+000	1.08421E-001	0.00000E+000	4	...........	1366.62
	202	4.06	1.18352E-001	1.24434E-010	0.00000E+000	1.18419E-001	0.00000E+000	4	...........	1366.62
	203	4.08	1.28350E-001	1.29349E-010	0.00000E+000	1.28416E-001	0.00000E+000	4	...........	1366.62
	204	4.1	1.38336E-001	1.34056E-010	0.00000E+000	1.38414E-001	0.00000E+000	4	...........	1366.62
	205	4.12	1.48337E-001	1.38898E-010	0.00000E+000	1.48411E-001	0.00000E+000	4	...........	1366.62
	206	4.14	1.58385E-001	1.44124E-010	0.00000E+000	1.58458E-001	0.00000E+000	4	...........	1366.62
	207	4.16	1.68389E-001	1.48762E-010	0.00000E+000	1.68456E-001	0.00000E+000	4	...........	1366.62
	208	4.18	1.78381E-001	1.53768E-010	0.00000E+000	1.78453E-001	0.00000E+000	4	...........	1366.62
	209	4.2	1.88393E-001	1.58932E-010	0.00000E+000	1.88451E-001	0.00000E+000	4	...........	1366.62
	210	4.22	1.98384E-001	1.64322E-010	0.00000E+000	1.98448E-001	0.00000E+000	4	...........	1366.62
	211	4.24	2.08384E-001	1.70074E-010	0.00000E+000	2.08446E-001	0.00000E+000	4	...........	1366.62
	212	4.26	2.18386E-001	1.76593E-010	0.00000E+000	2.18443E-001	0.00000E+000	4	...........	1366.62
	213	4.28	2.28372E-001	1.83669E-010	0.00000E+000	2.28440E-001	0.00000E+000	4	...........	1366.62
	214	4.3	2.38380E-001	1.90319E-010	0.00000E+000	2.38438E-001	0.00000E+000	4	...........	1366.62
	215	4.32	2.48383E-001	1.96867E-010	0.00000E+000	2.48435E-001	0.00000E+000	4	...........	1366.62
	216	4.34	2.58372E-001	2.02598E-010	0.00000E+000	2.58433E-001	0.00000E+000	4	...........	1366.62
	217	4.36	2.68374E-001	2.07319E-010	0.00000E+000	2.68430E-001	0.00000E+000	4	...........	1366.62
	218	4.38	2.78371E-001	2.11508E-010	0.00000E+000	2.78428E-001	0.00000E+000	4	...........	1366.62
	219	4.4	2.88382E-001	2.15264E-010	0.00000E+000	2.88425E-001	0.00000E+000	4	...........	1366.62
	220	4.42	2.98380E-001	2.18801E-010	0.00000E+000	2.98423E-001	0.00000E+000	4	...........	1366.62
	221	4.44	3.08376E-001	2.21946E-010	0.00000E+000	3.08420E-001	0.00000E+000	4	...........	1366.62
	222	4.46	3.18340E-001	2.24567E-010	0.00000E+000	3.18417E-001	0.00000E+000	4	...........	1366.62
	223	4.48	3.28330E-001	2.26665E-010	0.00000E+000	3.28415E-001	0.00000E+000	4	...........	1366.62
	224	4.5	3.38340E-001	2.28379E-010	0.00000E+000	3.38412E-001	0.00000E+000	4	...........	1366.62
	225	4.52	3.48335E-001	2.29732E-010	0.00000E+000	3.48410E-001	0.00000E+000	4	...........	1366.62
	226	4.54	3.58378E-001	2.30218E-010	0.00000E+000	3.58457E-001	0.00000E+000	4	...........	1366.62
	227	4.56	3.68389E-001	2.31666E-010	0.00000E+000	3.68455E-001	0.00000E+000	4	...........	1366.70
	228	4.58	3.78386E-001	2.32006E-010	0.00000E+000	3.78452E-001	0.00000E+000	4	...........	1366.79
	229	4.6	3.88392E-001	2.31139E-010	0.00000E+000	3.88450E-001	0.00000E+000	4	...........	1366.79
	230	4.62	3.98391E-001	2.30719E-010	0.00000E+000	3.98447E-001	0.00000E+000	4	...........	1366.79
	231	4.64	4.08388E-001	2.30786E-010	0.00000E+000	4.08444E-001	0.00000E+000	4	...........	1366.79
	232	4.66	4.18386E-001	2.30496E-010	0.00000E+000	4.18442E-001	0.00000E+000	4	...........	1366.79
	233	4.68	4.28397E-001	2.29666E-010	0.00000E+000	4.28439E-001	0.00000E+000	4	...........	1366.79
	234	4.7	4.38403E-001	2.28138E-010	0.00000E+000	4.38437E-001	0.00000E+000	4	...........	1366.79
	235	4.72	4.48396E-001	2.25988E-010	0.00000E+000	4.48434E-001	0.00000E+000	4	...........	1366.79
	236	4.74	4.58377E-001	2.23984E-010	0.00000E+000	4.58432E-001	0.00000E+000	4	...........	1366.79
	237	4.76	4.68381E-001	2.21273E-010	0.00000E+000	4.68429E-001	0.00000E+000	4	...........	1366.79
	238	4.78	4.78369E-001	2.17556E-010	0.00000E+000	4.78427E-001	0.00000E+000	4	...........	1366.79
	239	4.8	4.88394E-001	2.14944E-010	0.00000E+000	4.88424E-001	0.00000E+000	4	...........	1366.79
	240	4.82	4.98368E-001	2.12746E-010	0.00000E+000	4.98421E-001	0.00000E+000	4	...........	1366.79
	241	4.84	5.08380E-001	2.10917E-010	0.00000E+000	5.08419E-001	0.00000E+000	4	...........	1366.79
	242	4.86	5.18377E-001	2.08564E-010	0.00000E+000	5.18416E-001	0.00000E+000	4	...........	1366.79
	243	4.88	5.28382E-001	2.05835E-010	0.00000E+000	5.28414E-001	0.00000E+000	4	...........	1366.79
	244	4.9	5.38381E-001	2.04095E-010	0.00000E+000	5.38411E-001	0.00000E+000	4	...........	1366.79
	245	4.92	5.48376E-001	2.02311E-010	0.00000E+000	5.48409E-001	0.00000E+000	4	...........	1366.79
	246	4.94	5.58416E-001	2.00903E-010	0.00000E+000	5.58456E-001	0.00000E+000	4	...........	1366.79
	247	4.96	5.68430E-001	1.98718E-010	0.00000E+000	5.68453E-001	0.00000E+000	4	...........	1366.79
	248	4.98	5.78421E-001	1.96887E-010	0.00000E+000	5.78451E-001	0.00000E+000	4	...........	1366.79
	249	5	5.88430E-001	1.95294E-010	0.00000E+000	5.88448E-001	0.00000E+000	4	...........	1366.79
	250	5.02	5.98415E-001	1.94572E-010	0.00000E+000	5.98446E-001	0.00000E+000	4	...........	1366.79
	251	5.04	6.08428E-001	1.93141E-010	0.00000E+000	6.08443E-001	0.00000E+000	4	...........	1366.79
	252	5.06	6.18419E-001	1.92088E-010	0.00000E+000	6.18441E-001	0.00000E+000	4	...........	1366.79
	253	5.08	6.28416E-001	1.91128E-010	0.00000E+000	6.28438E-001	0.00000E+000	4	...........	1366.79
	254	5.1	6.38393E-001	1.90391E-010	0.00000E+000	6.38436E-001	0.00000E+000	4	...........	1366.79
	255	5.12	6.48412E-001	1.89311E-010	0.00000E+000	6.48433E-001	0.00000E+000	4	...........	1366.79
	256	5.14	6.58399E-001	1.88226E-010	0.00000E+000	6.58430E-001	0.00000E+000	4	...........	1366.79
	257	5.16	6.68409E-001	1.86917E-010	0.00000E+000	6.68428E-001	0.00000E+000	4	...........	1366.79
	258	5.18	6.78422E-001	1.85570E-010	0.00000E+000	6.78425E-001	0.00000E+000	4	...........	1366.79
	259	5.2	6.88404E-001	1.83592E-010	0.00000E+000	6.88423E-001	0.00000E+000	4	...........	1366.79
	260	5.22	6.98399E-001	1.81840E-010	0.00000E+000	6.98420E-001	0.00000E+000	4	...........	1366.79
	261	5.24	7.08410E-001	1.81627E-010	0.00000E+000	7.08418E-001	0.00000E+000	4	...........	1366.79
	262	5.26	7.18401E-001	1.80523E-010	0.00000E+000	7.18415E-001	0.00000E+000	4	...........	1366.79
	263	5.28	7.28398E-001	1.79518E-010	0.00000E+000	7.28413E-001	0.00000E+000	4	...........	1366.79
	264	5.3	7.38412E-001	1.78860E-010	0.00000E+000	7.38410E-001	0.00000E+000	4	...........	1366.79
	265	5.32	7.48464E-001	1.79537E-010	0.00000E+000	7.48457E-001	0.00000E+000	4	...........	1366.79
	266	5.34	7.58448E-001	1.81732E-010	0.00000E+000	7.58455E-001	0.00000E+000	4	...........	1366.79
	267	5.36	7.68454E-001	1.84923E-010	0.00000E+000	7.68452E-001	0.00000E+000	4	...........	1366.79
	268	5.38	7.78435E-001	1.89481E-010	0.00000E+000	7.78450E-001	0.00000E+000	4	...........	1366.79
	269	5.4	7.88446E-001	1.95973E-010	0.00000E+000	7.88447E-001	0.00000E+000	4	...........	1366.79
	270	5.42	7.98436E-001	2.06474E-010	0.00000E+000	7.98445E-001	0.00000E+000	4	...........	1366.79
CURVE2	TABLE
	Pt	T	Vf	Im	Vu	Sig	Ach	IERange	Over	Temp
	#	s	V vs. Ref.	A	V	V	V	#	bits	deg C
	271	5.44	7.90197E-001	1.69346E-010	0.00000E+000	7.89997E-001	0.00000E+000	4	...........	1366.79
	272	5.46	7.80192E-001	1.29379E-010	0.00000E+000	7.79999E-001	0.00000E+000	4	...........	1366.79
	273	5.48	7.70222E-001	9.74706E-011	0.00000E+000	7.70002E-001	0.00000E+000	4	...........	1366.79
	274	5.5	7.60210E-001	7.31966E-011	0.00000E+000	7.60004E-001	0.00000E+000	4	...........	1366.79
	275	5.52	7.50223E-001	5.48585E-011	0.00000E+000	7.50007E-001	0.00000E+000	4	...........	1366.79
	276	5.54	7.40216E-001	4.02875E-011	0.00000E+000	7.40010E-001	0.00000E+000	4	...........	1366.79
	277	5.56	7.30234E-001	2.88166E-011	0.00000E+000	7.30012E-001	0.00000E+000	4	...........	1366.66
	278	5.58	7.20204E-001	1.88818E-011	0.00000E+000	7.20015E-001	0.00000E+000	4	...........	1366.54
	279	5.6	7.10228E-001	1.07109E-011	0.00000E+000	7.10017E-001	0.00000E+000	4	...........	1366.54
	280	5.62	7.00221E-001	4.27062E-012	0.00000E+000	7.00020E-001	0.00000E+000	4	...........	1366.54
	281	5.64	6.90212E-001	-1.43945E-012	0.00000E+000	6.90022E-001	0.00000E+000	4	...........	1366.54
	282	5.66	6.80230E-001	-6.86881E-012	0.00000E+000	6.80025E-001	0.00000E+000	4	...........	1366.54
	283	5.68	6.70174E-001	-1.31693E-011	0.00000E+000	6.69977E-001	0.00000E+000	4	...........	1366.54
	284	5.7	6.60184E-001	-1.83978E-011	0.00000E+000	6.59980E-001	0.00000E+000	4	...........	1366.54
	285	5.72	6.50183E-001	-2.35330E-011	0.00000E+000	6.49983E-001	0.00000E+000	4	...........	1366.54
	286	5.74	6.40180E-001	-2.83778E-011	0.00000E+000	6.39985E-001	0.00000E+000	4	...........	1366.54
	287	5.76	6.30185E-001	-3.20834E-011	0.00000E+000	6.29988E-001	0.00000E+000	4	...........	1366.54
	288	5.78	6.20175E-001	-3.50880E-011	0.00000E+000	6.19990E-001	0.00000E+000	4	...........	1366.54
	289	5.8	6.10178E-001	-3.87519E-011	0.00000E+000	6.09993E-001	0.00000E+000	4	...........	1366.54
	290	5.82	6.00171E-001	-4.20160E-011	0.00000E+000	5.99995E-001	0.00000E+000	4	...........	1366.54
	291	5.84	5.90200E-001	-4.52254E-011	0.00000E+000	5.89998E-001	0.00000E+000	4	...........	1366.54
	292	5.86	5.80208E-001	-4.84278E-011	0.00000E+000	5.80001E-001	0.00000E+000	4	...........	1366.54
	293	5.88	5.70208E-001	-5.12658E-011	0.00000E+000	5.70003E-001	0.00000E+000	4	...........	1366.54
	294	5.9	5.60199E-001	-5.45458E-011	0.00000E+000	5.60006E-001	0.00000E+000	4	...........	1366.54
	295	5.92	5.50206E-001	-5.79668E-011	0.00000E+000	5.50008E-001	0.00000E+000	4	...........	1366.54
	296	5.94	5.40204E-001	-6.11530E-011	0.00000E+000	5.40011E-001	0.00000E+000	4	...........	1366.54
	297	5.96	5.30195E-001	-6.47042E-011	0.00000E+000	5.30013E-001	0.00000E+000	4	...........	1366.54
	298	5.98	5.20193E-001	-6.85632E-011	0.00000E+000	5.20016E-001	0.00000E+000	4	...........	1366.54
	299	6	5.10184E-001	-7.22857E-011	0.00000E+000	5.10018E-001	0.00000E+000	4	...........	1366.54
	300	6.02	5.00215E-001	-7.63766E-011	0.00000E+000	5.00021E-001	0.00000E+000	4	...........	1366.54
	301	6.04	4.90235E-001	-8.05852E-011	0.00000E+000	4.90024E-001	0.00000E+000	4	...........	1366.54
	302	6.06	4.80183E-001	-8.50968E-011	0.00000E+000	4.79976E-001	0.00000E+000	4	...........	1366.54
	303	6.08	4.70147E-001	-8.94506E-011	0.00000E+000	4.69979E-001	0.00000E+000	4	...........	1366.54
	304	6.1	4.60153E-001	-9.42959E-011	0.00000E+000	4.59981E-001	0.00000E+000	4	...........	1366.54
	305	6.12	4.50168E-001	-9.91647E-011	0.00000E+000	4.49984E-001	0.00000E+000	4	...........	1366.54
	306	6.14	4.40176E-001	-1.04467E-010	0.00000E+000	4.39986E-001	0.00000E+000	4	...........	1366.54
	307	6.16	4.30177E-001	-1.10115E-010	0.00000E+000	4.29989E-001	0.00000E+000	4	...........	1366.54
	308	6.18	4.20185E-001	-1.15836E-010	0.00000E+000	4.19991E-001	0.00000E+000	4	...........	1366.54
	309	6.2	4.10178E-001	-1.21648E-010	0.00000E+000	4.09994E-001	0.00000E+000	4	...........	1366.54
	310	6.22	4.00163E-001	-1.27090E-010	0.00000E+000	3.99997E-001	0.00000E+000	4	...........	1366.54
	311	6.24	3.90181E-001	-1.32115E-010	0.00000E+000	3.89999E-001	0.00000E+000	4	...........	1366.54
	312	6.26	3.80157E-001	-1.36895E-010	0.00000E+000	3.80002E-001	0.00000E+000	4	...........	1366.54
	313	6.28	3.70181E-001	-1.41170E-010	0.00000E+000	3.70004E-001	0.00000E+000	4	...........	1366.54
	314	6.3	3.60177E-001	-1.44586E-010	0.00000E+000	3.60007E-001	0.00000E+000	4	...........	1366.54
	315	6.32	3.50176E-001	-1.47184E-010	0.00000E+000	3.50009E-001	0.00000E+000	4	...........	1366.54
	316	6.34	3.40177E-001	-1.49216E-010	0.00000E+000	3.40012E-001	0.00000E+000	4	...........	1366.54
	317	6.36	3.30178E-001	-1.50786E-010	0.00000E+000	3.30014E-001	0.00000E+000	4	...........	1366.54
	318	6.38	3.20194E-001	-1.52495E-010	0.00000E+000	3.20017E-001	0.00000E+000	4	...........	1366.54
	319	6.4	3.10204E-001	-1.53848E-010	0.00000E+000	3.10020E-001	0.00000E+000	4	...........	1366.54
	320	6.42	3.00196E-001	-1.55253E-010	0.00000E+000	3.00022E-001	0.00000E+000	4	...........	1366.54
	321	6.44	2.90196E-001	-1.56759E-010	0.00000E+000	2.90025E-001	0.00000E+000	4	...........	1366.54
	322	6.46	2.80136E-001	-1.58342E-010	0.00000E+000	2.79977E-001	0.00000E+000	4	...........	1366.54
	323	6.48	2.70142E-001	-1.59518E-010	0.00000E+000	2.69980E-001	0.00000E+000	4	...........	1366.54
	324	6.5	2.60146E-001	-1.60406E-010	0.00000E+000	2.59982E-001	0.00000E+000	4	...........	1366.54
	325	6.52	2.50154E-001	-1.61253E-010	0.00000E+000	2.49985E-001	0.00000E+000	4	...........	1366.54
	326	6.54	2.40145E-001	-1.62403E-010	0.00000E+000	2.39988E-001	0.00000E+000	4	...........	1366.54
	327	6.56	2.30165E-001	-1.63420E-010	0.00000E+000	2.29990E-001	0.00000E+000	4	...........	1366.49
	328	6.58	2.20147E-001	-1.64476E-010	0.00000E+000	2.19993E-001	0.00000E+000	4	...........	1366.45
	329	6.6	2.10152E-001	-1.65218E-010	0.00000E+000	2.09995E-001	0.00000E+000	4	...........	1366.45
	330	6.62	2.00154E-001	-1.65719E-010	0.00000E+000	1.99998E-001	0.00000E+000	4	...........	1366.45
	331	6.64	1.90155E-001	-1.66171E-010	0.00000E+000	1.90000E-001	0.00000E+000	4	...........	1366.45
	332	6.66	1.80165E-001	-1.66586E-010	0.00000E+000	1.80003E-001	0.00000E+000	4	...........	1366.45
	333	6.68	1.70147E-001	-1.66617E-010	0.00000E+000	1.70005E-001	0.00000E+000	4	...........	1366.45
	334	6.7	1.60143E-001	-1.66567E-010	0.00000E+000	1.60008E-001	0.00000E+000	4	...........	1366.45
	335	6.72	1.50153E-001	-1.66540E-010	0.00000E+000	1.50011E-001	0.00000E+000	4	...........	1366.45
	336	6.74	1.40151E-001	-1.66560E-010	0.00000E+000	1.40013E-001	0.00000E+000	4	...........	1366.45
	337	6.76	1.30173E-001	-1.66710E-010	0.00000E+000	1.30016E-001	0.00000E+000	4	...........	1366.45
	338	6.78	1.20164E-001	-1.66954E-010	0.00000E+000	1.20018E-001	0.00000E+000	4	...........	1366.45
	339	6.8	1.10176E-001	-1.67338E-010	0.00000E+000	1.10021E-001	0.00000E+000	4	...........	1366.45
[...]
	641	12.84	-1.09897E-001	-1.96318E-010	0.00000E+000	-1.10023E-001	0.00000E+000	4	...........	1366.45
	642	12.86	-1.19895E-001	-2.00102E-010	0.00000E+000	-1.20020E-001	0.00000E+000	4	...........	1366.45
	643	12.88	-1.29908E-001	-2.03370E-010	0.00000E+000	-1.30018E-001	0.00000E+000	4	...........	1366.45
	644	12.9	-1.39887E-001	-2.07350E-010	0.00000E+000	-1.40015E-001	0.00000E+000	4	...........	1366.45
	645	12.92	-1.49895E-001	-2.12062E-010	0.00000E+000	-1.50013E-001	0.00000E+000	4	...........	1366.45
	646	12.94	-1.59886E-001	-2.17188E-010	0.00000E+000	-1.60010E-001	0.00000E+000	4	...........	1366.45
	647	12.96	-1.69886E-001	-2.22014E-010	0.00000E+000	-1.70007E-001	0.00000E+000	4	...........	1366.45
	648	12.98	-1.79907E-001	-2.27042E-010	0.00000E+000	-1.80005E-001	0.00000E+000	4	...........	1366.45
	649	13	-1.89880E-001	-2.32672E-010	0.00000E+000	-1.90002E-001	0.00000E+000	4	...........	1366.45
	650	13.02	-1.99872E-001	-2.38185E-010	0.00000E+000	-2.00000E-001	0.00000E+000	4	...........	1366.45
	651	13.04	-2.09864E-001	-2.43252E-010	0.00000E+000	-2.09997E-001	0.00000E+000	4	...........	1366.45
	652	13.06	-2.19883E-001	-2.48938E-010	0.00000E+000	-2.19995E-001	0.00000E+000	4	...........	1366.45
	653	13.08	-2.29869E-001	-2.53677E-010	0.00000E+000	-2.29992E-001	0.00000E+000	4	...........	1366.45
	654	13.1	-2.39876E-001	-2.57686E-010	0.00000E+000	-2.39990E-001	0.00000E+000	4	...........	1366.45
	655	13.12	-2.49868E-001	-2.62493E-010	0.00000E+000	-2.49987E-001	0.00000E+000	4	...........	1366.45
	656	13.14	-2.59875E-001	-2.67104E-010	0.00000E+000	-2.59984E-001	0.00000E+000	4	...........	1366.45
	657	13.16	-2.69875E-001	-2.71149E-010	0.00000E+000	-2.69982E-001	0.00000E+000	4	...........	1366.45
	658	13.18	-2.79866E-001	-2.74652E-010	0.00000E+000	-2.79979E-001	0.00000E+000	4	...........	1366.45
	659	13.2	-2.89864E-001	-2.78620E-010	0.00000E+000	-2.89977E-001	0.00000E+000	4	...........	1366.45
	660	13.22	-2.99873E-001	-2.81805E-010	0.00000E+000	-2.99974E-001	0.00000E+000	4	...........	1366.45
	661	13.24	-3.09916E-001	-2.85931E-010	0.00000E+000	-3.10022E-001	0.00000E+000	4	...........	1366.45
	662	13.26	-3.19901E-001	-2.88773E-010	0.00000E+000	-3.20019E-001	0.00000E+000	4	...........	1366.45
	663	13.28	-3.29892E-001	-2.90951E-010	0.00000E+000	-3.30017E-001	0.00000E+000	4	...........	1366.45
	664	13.3	-3.39917E-001	-2.92898E-010	0.00000E+000	-3.40014E-001	0.00000E+000	4	...........	1366.45
	665	13.32	-3.49919E-001	-2.96040E-010	0.00000E+000	-3.50011E-001	0.00000E+000	4	...........	1366.45
	666	13.34	-3.59919E-001	-2.98623E-010	0.00000E+000	-3.60009E-001	0.00000E+000	4	...........	1366.45
	667	13.36	-3.69887E-001	-3.00818E-010	0.00000E+000	-3.70006E-001	0.00000E+000	4	...........	1366.45
	668	13.38	-3.79888E-001	-3.03129E-010	0.00000E+000	-3.80004E-001	0.00000E+000	4	...........	1366.45
	669	13.4	-3.89884E-001	-3.05187E-010	0.00000E+000	-3.90001E-001	0.00000E+000	4	...........	1366.45
	670	13.42	-3.99875E-001	-3.07011E-010	0.00000E+000	-3.99999E-001	0.00000E+000	4	...........	1366.45
	671	13.44	-4.09883E-001	-3.08542E-010	0.00000E+000	-4.09996E-001	0.00000E+000	4	...........	1366.45
	672	13.46	-4.19878E-001	-3.08886E-010	0.00000E+000	-4.19994E-001	0.00000E+000	4	...........	1366.45
	673	13.48	-4.29865E-001	-3.10310E-010	0.00000E+000	-4.29991E-001	0.00000E+000	4	...........	1366.45
	674	13.5	-4.39883E-001	-3.12130E-010	0.00000E+000	-4.39988E-001	0.00000E+000	4	...........	1366.45
	675	13.52	-4.49885E-001	-3.13873E-010	0.00000E+000	-4.49986E-001	0.00000E+000	4	...........	1366.45
	676	13.54	-4.59882E-001	-3.18037E-010	0.00000E+000	-4.59983E-001	0.00000E+000	4	...........	1366.45
	677	13.56	-4.69876E-001	-3.18009E-010	0.00000E+000	-4.69981E-001	0.00000E+000	4	...........	1366.45
	678	13.58	-4.79881E-001	-3.18967E-010	0.00000E+000	-4.79978E-001	0.00000E+000	4	...........	1366.45
	679	13.6	-4.89885E-001	-3.19863E-010	0.00000E+000	-4.89976E-001	0.00000E+000	4	...........	1366.45
	680	13.62	-4.99890E-001	-3.21378E-010	0.00000E+000	-4.99973E-001	0.00000E+000	4	...........	1366.45
	681	13.64	-5.09917E-001	-3.24465E-010	0.00000E+000	-5.10020E-001	0.00000E+000	4	...........	1366.45
	682	13.66	-5.19903E-001	-3.28484E-010	0.00000E+000	-5.20018E-001	0.00000E+000	4	...........	1366.45
	683	13.68	-5.29897E-001	-3.32512E-010	0.00000E+000	-5.30015E-001	0.00000E+000	4	...........	1366.45
	684	13.7	-5.39911E-001	-3.38257E-010	0.00000E+000	-5.40013E-001	0.00000E+000	4	...........	1366.45
	685	13.72	-5.49899E-001	-3.41639E-010	0.00000E+000	-5.50010E-001	0.00000E+000	4	...........	1366.45
	686	13.74	-5.59901E-001	-3.46033E-010	0.00000E+000	-5.60008E-001	0.00000E+000	4	...........	1366.45
	687	13.76	-5.69905E-001	-3.50079E-010	0.00000E+000	-5.70005E-001	0.00000E+000	4	...........	1366.45
	688	13.78	-5.79908E-001	-3.54240E-010	0.00000E+000	-5.80003E-001	0.00000E+000	4	...........	1366.45
	689	13.8	-5.89911E-001	-3.58652E-010	0.00000E+000	-5.90000E-001	0.00000E+000	4	...........	1366.45
	690	13.82	-5.99900E-001	-3.63678E-010	0.00000E+000	-5.99997E-001	0.00000E+000	4	...........	1366.45
	691	13.84	-5.90136E-001	-3.26477E-010	0.00000E+000	-5.90000E-001	0.00000E+000	4	...........	1366.45
	692	13.86	-5.80128E-001	-2.98056E-010	0.00000E+000	-5.80003E-001	0.00000E+000	4	...........	1366.45
	693	13.88	-5.70119E-001	-2.75111E-010	0.00000E+000	-5.70005E-001	0.00000E+000	4	...........	1366.45
	694	13.9	-5.60124E-001	-2.57264E-010	0.00000E+000	-5.60008E-001	0.00000E+000	4	...........	1366.45
	695	13.92	-5.50124E-001	-2.41909E-010	0.00000E+000	-5.50010E-001	0.00000E+000	4	...........	1366.45
	696	13.94	-5.40132E-001	-2.28841E-010	0.00000E+000	-5.40013E-001	0.00000E+000	4	...........	1366.45
	697	13.96	-5.30116E-001	-2.16394E-010	0.00000E+000	-5.30015E-001	0.00000E+000	4	...........	1366.45
	698	13.98	-5.20110E-001	-2.05112E-010	0.00000E+000	-5.20018E-001	0.00000E+000	4	...........	1366.45
	699	14	-5.10132E-001	-1.94281E-010	0.00000E+000	-5.10020E-001	0.00000E+000	4	...........	1366.45
	700	14.02	-5.00110E-001	-1.85775E-010	0.00000E+000	-4.99973E-001	0.00000E+000	4	...........	1366.45
	701	14.04	-4.90110E-001	-1.76829E-010	0.00000E+000	-4.89976E-001	0.00000E+000	4	...........	1366.45
	702	14.06	-4.80102E-001	-1.67218E-010	0.00000E+000	-4.79978E-001	0.00000E+000	4	...........	1366.45
	703	14.08	-4.70105E-001	-1.56417E-010	0.00000E+000	-4.69981E-001	0.00000E+000	4	...........	1366.45
	704	14.1	-4.60110E-001	-1.46967E-010	0.00000E+000	-4.59983E-001	0.00000E+000	4	...........	1366.45
	705	14.12	-4.50108E-001	-1.35644E-010	0.00000E+000	-4.49986E-001	0.00000E+000	4	...........	1366.45
	706	14.14	-4.40114E-001	-1.24935E-010	0.00000E+000	-4.39988E-001	0.00000E+000	4	...........	1366.45
	707	14.16	-4.30108E-001	-1.15019E-010	0.00000E+000	-4.29991E-001	0.00000E+000	4	...........	1366.45
	708	14.18	-4.20109E-001	-1.05703E-010	0.00000E+000	-4.19994E-001	0.00000E+000	4	...........	1366.45
	709	14.2	-4.10107E-001	-9.71398E-011	0.00000E+000	-4.09996E-001	0.00000E+000	4	...........	1366.45
	710	14.22	-4.00096E-001	-8.88197E-011	0.00000E+000	-3.99999E-001	0.00000E+000	4	...........	1366.45
	711	14.24	-3.90114E-001	-7.98871E-011	0.00000E+000	-3.90001E-001	0.00000E+000	4	...........	1366.45
	712	14.26	-3.80116E-001	-7.12916E-011	0.00000E+000	-3.80004E-001	0.00000E+000	4	...........	1366.45
	713	14.28	-3.70115E-001	-6.28847E-011	0.00000E+000	-3.70006E-001	0.00000E+000	4	...........	1366.45
	714	14.3	-3.60137E-001	-5.47663E-011	0.00000E+000	-3.60009E-001	0.00000E+000	4	...........	1366.45
	715	14.32	-3.50130E-001	-4.63214E-011	0.00000E+000	-3.50011E-001	0.00000E+000	4	...........	1366.45
	716	14.34	-3.40130E-001	-3.85803E-011	0.00000E+000	-3.40014E-001	0.00000E+000	4	...........	1366.45
	717	14.36	-3.30106E-001	-3.01533E-011	0.00000E+000	-3.30017E-001	0.00000E+000	4	...........	1366.45
	718	14.38	-3.20118E-001	-2.20464E-011	0.00000E+000	-3.20019E-001	0.00000E+000	4	...........	1366.45
	719	14.4	-3.10144E-001	-1.39768E-011	0.00000E+000	-3.10022E-001	0.00000E+000	4	...........	1366.45
	720	14.42	-3.00092E-001	-6.54765E-012	0.00000E+000	-2.99974E-001	0.00000E+000	4	...........	1366.45
	721	14.44	-2.90082E-001	5.70126E-013	0.00000E+000	-2.89977E-001	0.00000E+000	4	...........	1366.45
	722	14.46	-2.80086E-001	7.32907E-012	0.00000E+000	-2.79979E-001	0.00000E+000	4	...........	1366.45
	723	14.48	-2.70091E-001	1.36566E-011	0.00000E+000	-2.69982E-001	0.00000E+000	4	...........	1366.45
	724	14.5	-2.60099E-001	1.98971E-011	0.00000E+000	-2.59984E-001	0.00000E+000	4	...........	1366.45
	725	14.52	-2.50096E-001	2.59287E-011	0.00000E+000	-2.49987E-001	0.00000E+000	4	...........	1366.45
	726	14.54	-2.40096E-001	3.17280E-011	0.00000E+000	-2.39990E-001	0.00000E+000	4	...........	1366.45
	727	14.56	-2.30091E-001	3.72196E-011	0.00000E+000	-2.29992E-001	0.00000E+000	4	...........	1366.45
	728	14.58	-2.20100E-001	4.24704E-011	0.00000E+000	-2.19995E-001	0.00000E+000	4	...........	1366.45
	729	14.6	-2.10093E-001	4.79695E-011	0.00000E+000	-2.09997E-001	0.00000E+000	4	...........	1366.45
	730	14.62	-2.00097E-001	5.31023E-011	0.00000E+000	-2.00000E-001	0.00000E+000	4	...........	1366.45
	731	14.64	-1.90099E-001	5.81173E-011	0.00000E+000	-1.90002E-001	0.00000E+000	4	...........	1366.45
	732	14.66	-1.80123E-001	6.27352E-011	0.00000E+000	-1.80005E-001	0.00000E+000	4	...........	1366.45
	733	14.68	-1.70094E-001	6.73046E-011	0.00000E+000	-1.70007E-001	0.00000E+000	4	...........	1366.45
	734	14.7	-1.60094E-001	7.17119E-011	0.00000E+000	-1.60010E-001	0.00000E+000	4	...........	1366.45
	735	14.72	-1.50098E-001	7.71469E-011	0.00000E+000	-1.50013E-001	0.00000E+000	4	...........	1366.45
	736	14.74	-1.40099E-001	8.08155E-011	0.00000E+000	-1.40015E-001	0.00000E+000	4	...........	1366.45
	737	14.76	-1.30123E-001	8.42415E-011	0.00000E+000	-1.30018E-001	0.00000E+000	4	...........	1366.45
	738	14.78	-1.20124E-001	8.76186E-011	0.00000E+000	-1.20020E-001	0.00000E+000	4	...........	1366.45
	739	14.8	-1.10128E-001	9.10132E-011	0.00000E+000	-1.10023E-001	0.00000E+000	4	...........	1366.45
	740	14.82	-1.00085E-001	9.43329E-011	0.00000E+000	-9.99754E-002	0.00000E+000	4	...........	1366.45
	741	14.84	-9.00823E-002	9.72959E-011	0.00000E+000	-8.99780E-002	0.00000E+000	4	...........	1366.45
	742	14.86	-8.00877E-002	1.00175E-010	0.00000E+000	-7.99806E-002	0.00000E+000	4	...........	1366.45
	743	14.88	-7.00818E-002	1.03266E-010	0.00000E+000	-6.99831E-002	0.00000E+000	4	...........	1366.45
	744	14.9	-6.01018E-002	1.06025E-010	0.00000E+000	-5.99857E-002	0.00000E+000	4	...........	1366.45
	745	14.92	-5.00886E-002	1.08835E-010	0.00000E+000	-4.99882E-002	0.00000E+000	4	...........	1366.45
	746	14.94	-4.01118E-002	1.11559E-010	0.00000E+000	-3.99908E-002	0.00000E+000	4	...........	1366.45
	747	14.96	-3.01103E-002	1.14785E-010	0.00000E+000	-2.99934E-002	0.00000E+000	4	...........	1366.45
	748	14.98	-2.00966E-002	1.18110E-010	0.00000E+000	-1.99959E-002	0.00000E+000	4	...........	1366.45
	749	15	-1.01000E-002	1.21067E-010	0.00000E+000	-9.99847E-003	0.00000E+000	4	...........	1366.45
	750	15.02	-8.25127E-005	1.23876E-010	0.00000E+000	-1.02818E-006	0.00000E+000	4	...........	1366.45
	751	15.04	9.89643E-003	1.27121E-010	0.00000E+000	9.99641E-003	0.00000E+000	4	...........	1366.45
	752	15.06	1.99095E-002	1.30641E-010	0.00000E+000	1.99939E-002	0.00000E+000	4	...........	1366.45
	753	15.08	2.99220E-002	1.33814E-010	0.00000E+000	2.99913E-002	0.00000E+000	4	...........	1366.45
	754	15.1	3.99142E-002	1.36964E-010	0.00000E+000	3.99887E-002	0.00000E+000	4	...........	1366.45
	755	15.12	4.99089E-002	1.39953E-010	0.00000E+000	4.99862E-002	0.00000E+000	4	...........	1366.45
	756	15.14	5.98861E-002	1.43148E-010	0.00000E+000	5.99836E-002	0.00000E+000	4	...........	1366.45
	757	15.16	6.99134E-002	1.46697E-010	0.00000E+000	6.99811E-002	0.00000E+000	4	...........	1366.45
	758	15.18	7.99083E-002	1.50171E-010	0.00000E+000	7.99785E-002	0.00000E+000	4	...........	1366.45
	759	15.2	8.99592E-002	1.54054E-010	0.00000E+000	9.00259E-002	0.00000E+000	4	...........	1366.45
	760	15.22	9.99411E-002	1.57321E-010	0.00000E+000	1.00023E-001	0.00000E+000	4	...........	1366.45
	761	15.24	1.09954E-001	1.60565E-010	0.00000E+000	1.10021E-001	0.00000E+000	4	...........	1366.45
	762	15.26	1.19946E-001	1.64120E-010	0.00000E+000	1.20018E-001	0.00000E+000	4	...........	1366.45
	763	15.28	1.29952E-001	1.67400E-010	0.00000E+000	1.30016E-001	0.00000E+000	4	...........	1366.45
	764	15.3	1.39925E-001	1.71010E-010	0.00000E+000	1.40013E-001	0.00000E+000	4	...........	1366.45
	765	15.32	1.49925E-001	1.74668E-010	0.00000E+000	1.50011E-001	0.00000E+000	4	...........	1366.45
	766	15.34	1.59931E-001	1.78494E-010	0.00000E+000	1.60008E-001	0.00000E+000	4	...........	1366.45
	767	15.36	1.69932E-001	1.81959E-010	0.00000E+000	1.70005E-001	0.00000E+000	4	...........	1366.45
	768	15.38	1.79938E-001	1.85413E-010	0.00000E+000	1.80003E-001	0.00000E+000	4	...........	1366.45
	769	15.4	1.89933E-001	1.89247E-010	0.00000E+000	1.90000E-001	0.00000E+000	4	...........	1366.45
	770	15.42	1.99930E-001	1.92734E-010	0.00000E+000	1.99998E-001	0.00000E+000	4	...........	1366.45
	771	15.44	2.09931E-001	1.96635E-010	0.00000E+000	2.09995E-001	0.00000E+000	4	...........	1366.45
	772	15.46	2.19928E-001	2.01607E-010	0.00000E+000	2.19993E-001	0.00000E+000	4	...........	1366.45
	773	15.48	2.29944E-001	2.06704E-010	0.00000E+000	2.29990E-001	0.00000E+000	4	...........	1366.45
	774	15.5	2.39921E-001	2.11894E-010	0.00000E+000	2.39988E-001	0.00000E+000	4	...........	1366.45
	775	15.52	2.49922E-001	2.16769E-010	0.00000E+000	2.49985E-001	0.00000E+000	4	...........	1366.45
	776	15.54	2.59921E-001	2.20902E-010	0.00000E+000	2.59982E-001	0.00000E+000	4	...........	1366.45
	777	15.56	2.69923E-001	2.24672E-010	0.00000E+000	2.69980E-001	0.00000E+000	4	...........	1366.85
	778	15.58	2.79917E-001	2.27978E-010	0.00000E+000	2.79977E-001	0.00000E+000	4	...........	1366.88
	779	15.6	2.89970E-001	2.31341E-010	0.00000E+000	2.90025E-001	0.00000E+000	4	...........	1366.88
	780	15.62	2.99967E-001	2.33922E-010	0.00000E+000	3.00022E-001	0.00000E+000	4	...........	1366.88
	781	15.64	3.09979E-001	2.36374E-010	0.00000E+000	3.10020E-001	0.00000E+000	4	...........	1366.88
	782	15.66	3.19963E-001	2.37822E-010	0.00000E+000	3.20017E-001	0.00000E+000	4	...........	1366.88
	783	15.68	3.29949E-001	2.39037E-010	0.00000E+000	3.30014E-001	0.00000E+000	4	...........	1366.88
	784	15.7	3.39954E-001	2.39909E-010	0.00000E+000	3.40012E-001	0.00000E+000	4	...........	1366.88
	785	15.72	3.49961E-001	2.40722E-010	0.00000E+000	3.50009E-001	0.00000E+000	4	...........	1366.88
	786	15.74	3.59960E-001	2.41090E-010	0.00000E+000	3.60007E-001	0.00000E+000	4	...........	1366.88
	787	15.76	3.69961E-001	2.41597E-010	0.00000E+000	3.70004E-001	0.00000E+000	4	...........	1366.88
	788	15.78	3.79943E-001	2.41599E-010	0.00000E+000	3.80002E-001	0.00000E+000	4	...........	1366.88
	789	15.8	3.89952E-001	2.40704E-010	0.00000E+000	3.89999E-001	0.00000E+000	4	...........	1366.88
	790	15.82	3.99946E-001	2.40098E-010	0.00000E+000	3.99997E-001	0.00000E+000	4	...........	1366.88
	791	15.84	4.09960E-001	2.38736E-010	0.00000E+000	4.09994E-001	0.00000E+000	4	...........	1366.88
	792	15.86	4.19949E-001	2.36878E-010	0.00000E+000	4.19991E-001	0.00000E+000	4	...........	1366.88
	793	15.88	4.29948E-001	2.34973E-010	0.00000E+000	4.29989E-001	0.00000E+000	4	...........	1366.88
	794	15.9	4.39946E-001	2.32602E-010	0.00000E+000	4.39986E-001	0.00000E+000	4	...........	1366.88
	795	15.92	4.49943E-001	2.30282E-010	0.00000E+000	4.49984E-001	0.00000E+000	4	...........	1366.88
	796	15.94	4.59939E-001	2.27526E-010	0.00000E+000	4.59981E-001	0.00000E+000	4	...........	1366.88
	797	15.96	4.69931E-001	2.24817E-010	0.00000E+000	4.69979E-001	0.00000E+000	4	...........	1366.88
	798	15.98	4.79934E-001	2.22643E-010	0.00000E+000	4.79976E-001	0.00000E+000	4	...........	1366.88
	799	16	4.89982E-001	2.20184E-010	0.00000E+000	4.90024E-001	0.00000E+000	4	...........	1366.88
	800	16.02	4.99984E-001	2.15975E-010	0.00000E+000	5.00021E-001	0.00000E+000	4	...........	1366.88
	801	16.04	5.09947E-001	2.12017E-010	0.00000E+000	5.10018E-001	0.00000E+000	4	...........	1366.88
	802	16.06	5.19961E-001	2.09121E-010	0.00000E+000	5.20016E-001	0.00000E+000	4	...........	1366.88
	803	16.08	5.29963E-001	2.06612E-010	0.00000E+000	5.30013E-001	0.00000E+000	4	...........	1366.88
	804	16.1	5.39957E-001	2.03914E-010	0.00000E+000	5.40011E-001	0.00000E+000	4	...........	1366.88
	805	16.12	5.49963E-001	2.02892E-010	0.00000E+000	5.50008E-001	0.00000E+000	4	...........	1366.88
	806	16.14	5.59969E-001	2.02410E-010	0.00000E+000	5.60006E-001	0.00000E+000	4	...........	1366.88
	807	16.16	5.69980E-001	2.01105E-010	0.00000E+000	5.70003E-001	0.00000E+000	4	...........	1366.88
	808	16.18	5.79977E-001	1.98856E-010	0.00000E+000	5.80001E-001	0.00000E+000	4	...........	1366.88
	809	16.2	5.89973E-001	1.97627E-010	0.00000E+000	5.89998E-001	0.00000E+000	4	...........	1366.88
	810	16.22	5.99946E-001	1.96847E-010	0.00000E+000	5.99995E-001	0.00000E+000	4	...........	1366.88
	811	16.24	6.09958E-001	1.96630E-010	0.00000E+000	6.09993E-001	0.00000E+000	4	...........	1366.88
	812	16.26	6.19956E-001	1.95601E-010	0.00000E+000	6.19990E-001	0.00000E+000	4	...........	1366.88
	813	16.28	6.29963E-001	1.94064E-010	0.00000E+000	6.29988E-001	0.00000E+000	4	...........	1366.88
	814	16.3	6.39948E-001	1.93235E-010	0.00000E+000	6.39985E-001	0.00000E+000	4	...........	1366.88
	815	16.32	6.49944E-001	1.92704E-010	0.00000E+000	6.49983E-001	0.00000E+000	4	...........	1366.88
	816	16.34	6.59944E-001	1.94349E-010	0.00000E+000	6.59980E-001	0.00000E+000	4	...........	1366.88
	817	16.36	6.69937E-001	1.93773E-010	0.00000E+000	6.69977E-001	0.00000E+000	4	...........	1366.88
	818	16.38	6.79991E-001	1.91296E-010	0.00000E+000	6.80025E-001	0.00000E+000	4	...........	1366.88
	819	16.4	6.89974E-001	1.89979E-010	0.00000E+000	6.90022E-001	0.00000E+000	4	...........	1366.88
	820	16.42	6.99977E-001	1.88232E-010	0.00000E+000	7.00020E-001	0.00000E+000	4	...........	1366.88
	821	16.44	7.10000E-001	1.86012E-010	0.00000E+000	7.10017E-001	0.00000E+000	4	...........	1366.88
	822	16.46	7.19989E-001	1.84484E-010	0.00000E+000	7.20015E-001	0.00000E+000	4	...........	1366.88
	823	16.48	7.30003E-001	1.83578E-010	0.00000E+000	7.30012E-001	0.00000E+000	4	...........	1366.88
	824	16.5	7.39980E-001	1.83703E-010	0.00000E+000	7.40010E-001	0.00000E+000	4	...........	1366.88
	825	16.52	7.49982E-001	1.84339E-010	0.00000E+000	7.50007E-001	0.00000E+000	4	...........	1366.88
	826	16.54	7.59988E-001	1.86007E-010	0.00000E+000	7.60004E-001	0.00000E+000	4	...........	1366.88
	827	16.56	7.69996E-001	1.90169E-010	0.00000E+000	7.70002E-001	0.00000E+000	4	...........	1366.80
	828	16.58	7.79974E-001	1.96705E-010	0.00000E+000	7.79999E-001	0.00000E+000	4	...........	1366.79
	829	16.6	7.89983E-001	2.03831E-010	0.00000E+000	7.89997E-001	0.00000E+000	4	...........	1366.79
	830	16.62	7.99999E-001	2.14286E-010	0.00000E+000	7.99994E-001	0.00000E+000	4	...........	1366.79
CURVE4	TABLE
	Pt	T	Vf	Im	Vu	Sig	Ach	IERange	Over	Temp
	#	s	V vs. Ref.	A	V	V	V	#	bits	deg C
	831	16.64	7.90208E-001	1.71949E-010	0.00000E+000	7.89997E-001	0.00000E+000	4	...........	1366.79
	832	16.66	7.80186E-001	1.31104E-010	0.00000E+000	7.79999E-001	0.00000E+000	4	...........	1366.79
	833	16.68	7.70207E-001	9.96269E-011	0.00000E+000	7.70002E-001	0.00000E+000	4	...........	1366.79
	834	16.7	7.60199E-001	7.59875E-011	0.00000E+000	7.60004E-001	0.00000E+000	4	...........	1366.79
	835	16.72	7.50198E-001	5.79133E-011	0.00000E+000	7.50007E-001	0.00000E+000	4	...........	1366.79
	836	16.74	7.40188E-001	4.38259E-011	0.00000E+000	7.40010E-001	0.00000E+000	4	...........	1366.79
	837	16.76	7.30226E-001	3.31028E-011	0.00000E+000	7.30012E-001	0.00000E+000	4	...........	1366.79
	838	16.78	7.20220E-001	2.35717E-011	0.00000E+000	7.20015E-001	0.00000E+000	4	...........	1366.79
	839	16.8	7.10246E-001	1.56302E-011	0.00000E+000	7.10017E-001	0.00000E+000	4	...........	1366.79
	840	16.82	7.00223E-001	8.99125E-012	0.00000E+000	7.00020E-001	0.00000E+000	4	...........	1366.79