File: Test_Data_Files/20250509_ZH_IF0011_IIA42_E08_PBSair_PEDOT_CV5000.DTA
EXPLAIN
TAG	CV
TITLE	LABEL	CV5000	Test Identifier
DATE	LABEL	5/9/2025	Date
TIME	LABEL	15:36:24	Time
NOTES	NOTES	1	Notes...

PSTAT	PSTAT	REF600P-43058	Potentiostat
VINIT	POTEN	0.00000E+000	T	Initial E (V)
VLIMIT1	POTEN	-9.00000E-001	F	Scan Limit 1 (V)
VLIMIT2	POTEN	6.00000E-001	F	Scan Limit 2 (V)
VFINAL	POTEN	0.00000E+000	T	Final E (V)
SCANRATE	QUANT	4.99999E+003	Scan Rate (mV/s)
STEPSIZE	QUANT	1.00000E+001	Step Size (mV)
CYCLES	IQUANT	3	Cycles (#)
IMODE	SELECTOR	1	I/E Range Mode
IRANGE	QUANT	1.00000E-002	Max Current (mA)
AREA	QUANT	1.00000E+000	Sample Area (cm^2)
EQDELAY	QUANT	5.00000E+000	Equil. Time (s)
IRCOMP	SELECTOR	0	IRComp
PFCOR	QUANT	5.00000E+001	PF Corr. (ohm)
SAMPLINGMODE	SELECTOR	2	Sampling Mode
EOC	QUANT	0.1530634	Open Circuit (V)
ELECTRODETYPE	SELECTOR	0	Electrode Type
STRIPPING	TOGGLE	F	Used for Stripping
SEQUENCER	TOGGLE	TRUE	Run as Sequence
PSTATMODEL	IQUANT	7	Pstat Model
PSTATSECTION	LABEL	REF600P-43058	Pstat Section
PSTATSERIALNO	LABEL	43058	Pstat Serial Number
CTRLMODE	IQUANT	1	Control Mode
ELECTROMETER	IQUANT	0	RE=0 or CS=1
IESTAB	IQUANT	2	I/E Stability
CASPEED	IQUANT	4	Control Amp Speed
CONVENTION	IQUANT	1	Current Convention
ICHRANGE	IQUANT	2	Ich Range
ICHRANGEMODE	TOGGLE	F	Ich Auto Range
ICHOFFSETENABLE	TOGGLE	F	Ich Offset Enable
ICHOFFSET	QUANT	0	Ich Offset (V)
ICHFILTER	IQUANT	2	Ich Filter
VCHRANGE	IQUANT	2	Vch Range
VCHRANGEMODE	TOGGLE	F	Vch Auto Range
VCHOFFSETENABLE	TOGGLE	F	Vch Offset Enable
VCHOFFSET	QUANT	0	Vch Offset (V)
VCHFILTER	IQUANT	2	Vch Filter
ACHRANGE	IQUANT	2	Ach Range
ACHOFFSETENABLE	TOGGLE	F	Ach Offset Enable
ACHOFFSET	QUANT	0	Ach Offset (V)
ACHFILTER	IQUANT	1	Ach Filter
IERANGELOWERLIMIT	IQUANT	1	I/E Range Lower Limit
IERANGEMODE	TOGGLE	F	I/E AutoRange
IERANGE	IQUANT	7	I/E Range
POSFEEDENABLE	TOGGLE	F	Positive Feedback IR Comp
POSFEEDRESISTANCE	QUANT	0	Positive Feedback Resistance (ohm)
ACHSELECT	IQUANT	4	Ach Select
SENSECABLEID	IQUANT	7	Sense Cable ID
PWRCABLEID	IQUANT	7	Power Cable ID
DCCALDATE	LABEL	5/8/2025	DC Calibration Date
ACCALDATE	LABEL	5/8/2025	AC Calibration Date
THERMOSELECT	IQUANT	1	Thermo Select
FRAMEWORKVERSION	LABEL	7.10.4	Framework Version
INSTRUMENTVERSION	LABEL	5.01	Instrument Version
COMMVERSION	LABEL	5.10	Communications Version
CPUPLDVERSION	LABEL	6.00	CPU PLD Version
CTRLPLDVERSION	LABEL	3.21	CTRL PLD Version
PSTATPLDVERSION	LABEL	0.00	PSTAT PLD Version
CURVE1	TABLE
	Pt	T	Vf	Im	Vu	Sig	Ach	IERange	Over	Temp
	#	s	V vs. Ref.	A	V	V	V	#	bits	deg C
	0	0.002	1.53097E-001	9.35513E-009	0.00000E+000	1.53050E-001	1.43333E-003	7	...........	-327.66
	1	0.004	1.43967E-001	-6.82894E-007	0.00000E+000	1.43050E-001	1.41091E-003	7	...........	-327.66
	2	0.006	1.33894E-001	-1.04786E-006	0.00000E+000	1.33050E-001	1.43505E-003	7	...........	-327.66
	3	0.008	1.23906E-001	-1.30972E-006	0.00000E+000	1.23050E-001	1.46264E-003	7	...........	-327.66
	4	0.01	1.13911E-001	-1.52542E-006	0.00000E+000	1.13050E-001	1.42815E-003	7	...........	-327.66
	5	0.012	1.03927E-001	-1.70995E-006	0.00000E+000	1.03050E-001	1.45574E-003	7	...........	-327.66
	6	0.014	9.38963E-002	-1.87635E-006	0.00000E+000	9.30500E-002	1.50057E-003	7	...........	-327.66
	7	0.016	8.38549E-002	-2.02944E-006	0.00000E+000	8.30500E-002	1.46091E-003	7	...........	-327.66
	8	0.018	7.38971E-002	-2.16704E-006	0.00000E+000	7.30500E-002	1.40747E-003	7	...........	-327.66
	9	0.02	6.39092E-002	-2.29653E-006	0.00000E+000	6.30500E-002	1.42126E-003	7	...........	-327.66
	10	0.022	5.38514E-002	-2.41687E-006	0.00000E+000	5.30500E-002	1.42471E-003	7	...........	-327.66
	11	0.024	4.39126E-002	-2.53046E-006	0.00000E+000	4.30500E-002	1.46609E-003	7	...........	-327.66
	12	0.026	3.38954E-002	-2.63751E-006	0.00000E+000	3.30500E-002	1.50919E-003	7	...........	-327.66
	13	0.028	2.39471E-002	-2.73717E-006	0.00000E+000	2.30500E-002	1.49712E-003	7	...........	-327.66
	14	0.03	1.38661E-002	-2.83272E-006	0.00000E+000	1.30500E-002	1.42471E-003	7	...........	-327.66
	15	0.032	3.89800E-003	-2.92411E-006	0.00000E+000	3.04998E-003	1.40747E-003	7	...........	-327.66
	16	0.034	-6.10976E-003	-3.00954E-006	0.00000E+000	-6.95001E-003	1.48160E-003	7	...........	-327.66
	17	0.036	-1.60615E-002	-3.09131E-006	0.00000E+000	-1.69500E-002	1.40229E-003	7	...........	-327.66
	18	0.038	-2.61373E-002	-3.16942E-006	0.00000E+000	-2.69500E-002	1.42126E-003	7	...........	-327.66
	19	0.04	-3.60623E-002	-3.24443E-006	0.00000E+000	-3.69500E-002	1.43160E-003	7	...........	-327.66
	20	0.042	-4.61235E-002	-3.31717E-006	0.00000E+000	-4.69500E-002	1.49367E-003	7	...........	-327.66
	21	0.044	-5.60899E-002	-3.38600E-006	0.00000E+000	-5.69500E-002	1.50057E-003	7	...........	-327.66
	22	0.046	-6.60753E-002	-3.45200E-006	0.00000E+000	-6.69500E-002	1.46436E-003	7	...........	-327.66
	23	0.048	-7.61279E-002	-3.51726E-006	0.00000E+000	-7.69500E-002	1.38850E-003	7	...........	-327.66
	24	0.05	-8.60555E-002	-3.57889E-006	0.00000E+000	-8.69500E-002	1.44712E-003	7	...........	-327.66
	25	0.052	-9.61029E-002	-3.64009E-006	0.00000E+000	-9.69500E-002	1.42471E-003	7	...........	-327.66
	26	0.054	-1.06157E-001	-3.69781E-006	0.00000E+000	-1.06950E-001	1.40402E-003	7	...........	-327.66
	27	0.056	-1.16081E-001	-3.75555E-006	0.00000E+000	-1.16950E-001	1.44884E-003	7	...........	-327.66
	28	0.058	-1.26151E-001	-3.81051E-006	0.00000E+000	-1.26950E-001	1.42643E-003	7	...........	-327.66
	29	0.06	-1.36087E-001	-3.86598E-006	0.00000E+000	-1.36950E-001	1.44195E-003	7	...........	-327.66
	30	0.062	-1.46122E-001	-3.91830E-006	0.00000E+000	-1.46950E-001	1.51264E-003	7	...........	-327.66
	31	0.064	-1.56133E-001	-3.97017E-006	0.00000E+000	-1.56950E-001	1.47815E-003	7	...........	-327.66
	32	0.066	-1.66083E-001	-4.02031E-006	0.00000E+000	-1.66950E-001	1.52988E-003	7	...........	-327.66
	33	0.068	-1.76094E-001	-4.07087E-006	0.00000E+000	-1.76950E-001	1.44540E-003	7	...........	-327.66
	34	0.07	-1.86140E-001	-4.12045E-006	0.00000E+000	-1.86950E-001	1.49195E-003	7	...........	-327.66
	35	0.072	-1.96107E-001	-4.16683E-006	0.00000E+000	-1.96950E-001	1.47643E-003	7	...........	-327.66
	36	0.074	-2.06080E-001	-4.21526E-006	0.00000E+000	-2.06950E-001	1.52126E-003	7	...........	-327.66
	37	0.076	-2.16027E-001	-4.26164E-006	0.00000E+000	-2.16950E-001	1.49367E-003	7	...........	-327.66
	38	0.078	-2.26087E-001	-4.30685E-006	0.00000E+000	-2.26950E-001	1.43333E-003	7	...........	-327.66
	39	0.08	-2.36068E-001	-4.35326E-006	0.00000E+000	-2.36950E-001	1.47471E-003	7	...........	-327.66
	40	0.082	-2.46066E-001	-4.39675E-006	0.00000E+000	-2.46950E-001	1.42643E-003	7	...........	-327.66
	41	0.084	-2.56050E-001	-4.43999E-006	0.00000E+000	-2.56950E-001	1.47643E-003	7	...........	-327.66
	42	0.086	-2.66021E-001	-4.48174E-006	0.00000E+000	-2.66950E-001	1.50402E-003	7	...........	-327.66
	43	0.088	-2.76083E-001	-4.52442E-006	0.00000E+000	-2.76950E-001	1.49195E-003	7	...........	-327.66
	44	0.09	-2.86089E-001	-4.56432E-006	0.00000E+000	-2.86950E-001	1.46091E-003	7	...........	-327.66
	45	0.092	-2.96044E-001	-4.60398E-006	0.00000E+000	-2.96950E-001	1.44367E-003	7	...........	-327.66
	46	0.094	-3.06119E-001	-4.64214E-006	0.00000E+000	-3.06950E-001	1.37643E-003	7	...........	-327.66
	47	0.096	-3.16072E-001	-4.67902E-006	0.00000E+000	-3.16950E-001	1.45747E-003	7	...........	-327.66
	48	0.098	-3.26062E-001	-4.71555E-006	0.00000E+000	-3.26950E-001	1.43505E-003	7	...........	-327.66
	49	0.1	-3.36060E-001	-4.75002E-006	0.00000E+000	-3.36950E-001	1.52643E-003	7	...........	-327.66
	50	0.102	-3.46060E-001	-4.78269E-006	0.00000E+000	-3.46950E-001	1.48505E-003	7	...........	-327.66
	51	0.104	-3.56103E-001	-4.81385E-006	0.00000E+000	-3.56950E-001	1.42298E-003	7	...........	-327.66
	52	0.106	-3.66067E-001	-4.84525E-006	0.00000E+000	-3.66950E-001	1.47815E-003	7	...........	-327.66
	53	0.108	-3.76044E-001	-4.87319E-006	0.00000E+000	-3.76950E-001	1.45747E-003	7	...........	-327.66
	54	0.11	-3.86083E-001	-4.89974E-006	0.00000E+000	-3.86950E-001	1.44367E-003	7	...........	-327.66
	55	0.112	-3.96069E-001	-4.92644E-006	0.00000E+000	-3.96950E-001	1.42988E-003	7	...........	-327.66
	56	0.114	-4.06081E-001	-4.94923E-006	0.00000E+000	-4.06950E-001	1.48505E-003	7	...........	-327.66
	57	0.116	-4.16019E-001	-4.97243E-006	0.00000E+000	-4.16950E-001	1.45747E-003	7	...........	-327.66
	58	0.118	-4.26047E-001	-4.99136E-006	0.00000E+000	-4.26950E-001	1.40574E-003	7	...........	-327.66
	59	0.12	-4.36055E-001	-5.01007E-006	0.00000E+000	-4.36950E-001	1.44884E-003	7	...........	-327.66
	60	0.122	-4.45989E-001	-5.02707E-006	0.00000E+000	-4.46950E-001	1.48160E-003	7	...........	-327.66
	61	0.124	-4.56034E-001	-5.04304E-006	0.00000E+000	-4.56950E-001	1.48333E-003	7	...........	-327.66
	62	0.126	-4.66057E-001	-5.05713E-006	0.00000E+000	-4.66950E-001	1.50402E-003	7	...........	-327.66
	63	0.128	-4.76022E-001	-5.07013E-006	0.00000E+000	-4.76950E-001	1.41953E-003	7	...........	-327.66
	64	0.13	-4.86057E-001	-5.08092E-006	0.00000E+000	-4.86950E-001	1.52988E-003	7	...........	-327.66
	65	0.132	-4.95992E-001	-5.09170E-006	0.00000E+000	-4.96950E-001	1.47643E-003	7	...........	-327.66
	66	0.134	-5.06074E-001	-5.10098E-006	0.00000E+000	-5.06950E-001	1.42988E-003	7	...........	-327.66
	67	0.136	-5.16077E-001	-5.10746E-006	0.00000E+000	-5.16950E-001	1.42643E-003	7	...........	-327.66
	68	0.138	-5.26042E-001	-5.11476E-006	0.00000E+000	-5.26950E-001	1.47988E-003	7	...........	-327.66
	69	0.14	-5.36055E-001	-5.11952E-006	0.00000E+000	-5.36950E-001	1.44884E-003	7	...........	-327.66
	70	0.142	-5.46057E-001	-5.12234E-006	0.00000E+000	-5.46950E-001	1.51953E-003	7	...........	-327.66
	71	0.144	-5.56076E-001	-5.12459E-006	0.00000E+000	-5.56950E-001	1.48160E-003	7	...........	-327.66
	72	0.146	-5.66049E-001	-5.12290E-006	0.00000E+000	-5.66950E-001	1.48850E-003	7	...........	-327.66
	73	0.148	-5.75990E-001	-5.11977E-006	0.00000E+000	-5.76950E-001	1.50747E-003	7	...........	-327.66
	74	0.15	-5.86062E-001	-5.11291E-006	0.00000E+000	-5.86950E-001	1.52471E-003	7	...........	-327.66
	75	0.152	-5.96065E-001	-5.10051E-006	0.00000E+000	-5.96950E-001	1.50747E-003	7	...........	-327.66
	76	0.154	-6.06059E-001	-5.08160E-006	0.00000E+000	-6.06950E-001	1.50229E-003	7	...........	-327.66
	77	0.156	-6.16037E-001	-5.05725E-006	0.00000E+000	-6.16950E-001	1.45057E-003	7	...........	-327.66
	78	0.158	-6.26019E-001	-5.02576E-006	0.00000E+000	-6.26950E-001	1.48333E-003	7	...........	-327.66
	79	0.16	-6.36040E-001	-4.98281E-006	0.00000E+000	-6.36950E-001	1.43850E-003	7	...........	-327.66
	80	0.162	-6.46038E-001	-4.92925E-006	0.00000E+000	-6.46950E-001	1.44712E-003	7	...........	-327.66
	81	0.164	-6.55974E-001	-4.86255E-006	0.00000E+000	-6.56950E-001	1.51436E-003	7	...........	-327.66
	82	0.166	-6.66043E-001	-4.78049E-006	0.00000E+000	-6.66950E-001	1.49022E-003	7	...........	-327.66
	83	0.168	-6.75986E-001	-4.68156E-006	0.00000E+000	-6.76950E-001	1.46091E-003	7	...........	-327.66
	84	0.17	-6.86051E-001	-4.56772E-006	0.00000E+000	-6.86950E-001	1.45229E-003	7	...........	-327.66
	85	0.172	-6.96019E-001	-4.43270E-006	0.00000E+000	-6.96950E-001	1.41436E-003	7	...........	-327.66
	86	0.174	-7.06011E-001	-4.27925E-006	0.00000E+000	-7.06950E-001	1.39884E-003	7	...........	-327.66
	87	0.176	-7.16055E-001	-4.11164E-006	0.00000E+000	-7.16950E-001	1.48678E-003	7	...........	-327.66
	88	0.178	-7.26055E-001	-3.92361E-006	0.00000E+000	-7.26950E-001	1.41781E-003	7	...........	-327.66
	89	0.18	-7.36025E-001	-3.72083E-006	0.00000E+000	-7.36950E-001	1.43505E-003	7	...........	-327.66
	90	0.182	-7.46057E-001	-3.50719E-006	0.00000E+000	-7.46950E-001	1.39195E-003	7	...........	-327.66
	91	0.184	-7.56024E-001	-3.28766E-006	0.00000E+000	-7.56950E-001	1.44712E-003	7	...........	-327.66
	92	0.186	-7.66070E-001	-3.06449E-006	0.00000E+000	-7.66950E-001	1.45229E-003	7	...........	-327.66
	93	0.188	-7.76011E-001	-2.84421E-006	0.00000E+000	-7.76950E-001	1.39712E-003	7	...........	-327.66
	94	0.19	-7.86011E-001	-2.62375E-006	0.00000E+000	-7.86950E-001	1.48160E-003	7	...........	-327.66
	95	0.192	-7.96073E-001	-2.41270E-006	0.00000E+000	-7.96950E-001	1.44195E-003	7	...........	-327.66
	96	0.194	-8.06026E-001	-2.21814E-006	0.00000E+000	-8.06950E-001	1.44712E-003	7	...........	-327.66
	97	0.196	-8.16027E-001	-2.03589E-006	0.00000E+000	-8.16950E-001	1.47815E-003	7	...........	-327.66
	98	0.198	-8.26071E-001	-1.87087E-006	0.00000E+000	-8.26950E-001	1.53160E-003	7	...........	-327.66
	99	0.2	-8.36055E-001	-1.72402E-006	0.00000E+000	-8.36950E-001	1.47471E-003	7	...........	-327.66
	100	0.202	-8.46068E-001	-1.59397E-006	0.00000E+000	-8.46950E-001	1.51781E-003	7	...........	-327.66
	101	0.204	-8.55999E-001	-1.47771E-006	0.00000E+000	-8.56950E-001	1.43333E-003	7	...........	-327.66
	102	0.206	-8.66068E-001	-1.37768E-006	0.00000E+000	-8.66950E-001	1.46264E-003	7	...........	-327.66
	103	0.208	-8.76069E-001	-1.28736E-006	0.00000E+000	-8.76950E-001	1.50057E-003	7	...........	-327.66
	104	0.21	-8.86061E-001	-1.20941E-006	0.00000E+000	-8.86950E-001	1.48160E-003	7	...........	-327.66
	105	0.212	-8.96049E-001	-1.13853E-006	0.00000E+000	-8.96950E-001	1.51609E-003	7	...........	-327.66
	106	0.214	-8.87595E-001	-9.93609E-007	0.00000E+000	-8.86950E-001	1.47988E-003	7	...........	-327.66
	107	0.216	-8.77617E-001	-8.93958E-007	0.00000E+000	-8.76950E-001	1.47815E-003	7	...........	-327.66
	108	0.218	-8.67599E-001	-8.15499E-007	0.00000E+000	-8.66950E-001	1.51781E-003	7	...........	-327.66
	109	0.22	-8.57588E-001	-7.49317E-007	0.00000E+000	-8.56950E-001	1.51091E-003	7	...........	-327.66
	110	0.222	-8.47630E-001	-6.94034E-007	0.00000E+000	-8.46950E-001	1.47298E-003	7	...........	-327.66
	111	0.224	-8.37642E-001	-6.42320E-007	0.00000E+000	-8.36950E-001	1.46609E-003	7	...........	-327.66
	112	0.226	-8.27602E-001	-5.95003E-007	0.00000E+000	-8.26950E-001	1.46264E-003	7	...........	-327.66
	113	0.228	-8.17593E-001	-5.49894E-007	0.00000E+000	-8.16950E-001	1.44712E-003	7	...........	-327.66
	114	0.23	-8.07618E-001	-5.05387E-007	0.00000E+000	-8.06950E-001	1.50919E-003	7	...........	-327.66
	115	0.232	-7.97624E-001	-4.60881E-007	0.00000E+000	-7.96950E-001	1.50919E-003	7	...........	-327.66
	116	0.234	-7.87593E-001	-4.15099E-007	0.00000E+000	-7.86950E-001	1.44367E-003	7	...........	-327.66
	117	0.236	-7.77602E-001	-3.67265E-007	0.00000E+000	-7.76950E-001	1.47643E-003	7	...........	-327.66
	118	0.238	-7.67606E-001	-3.15655E-007	0.00000E+000	-7.66950E-001	1.49712E-003	7	...........	-327.66
	119	0.24	-7.57595E-001	-2.61406E-007	0.00000E+000	-7.56950E-001	1.41091E-003	7	...........	-327.66
	120	0.242	-7.47619E-001	-2.02932E-007	0.00000E+000	-7.46950E-001	1.46264E-003	7	...........	-327.66
	121	0.244	-7.37671E-001	-1.38613E-007	0.00000E+000	-7.36950E-001	1.43678E-003	7	...........	-327.66
	122	0.246	-7.27649E-001	-6.80520E-008	0.00000E+000	-7.26950E-001	1.44195E-003	7	...........	-327.66
	123	0.248	-7.17670E-001	1.18037E-008	0.00000E+000	-7.16950E-001	1.41609E-003	7	...........	-327.66
	124	0.25	-7.07654E-001	9.75051E-008	0.00000E+000	-7.06950E-001	1.40574E-003	7	...........	-327.66
	125	0.252	-6.97608E-001	1.94967E-007	0.00000E+000	-6.96950E-001	1.47815E-003	7	...........	-327.66
	126	0.254	-6.87657E-001	3.03688E-007	0.00000E+000	-6.86950E-001	1.50574E-003	7	...........	-327.66
	127	0.256	-6.77588E-001	4.24998E-007	0.00000E+000	-6.76950E-001	1.48850E-003	7	...........	-327.66
	128	0.258	-6.67647E-001	5.58602E-007	0.00000E+000	-6.66950E-001	1.42298E-003	7	...........	-327.66
	129	0.26	-6.57624E-001	7.07278E-007	0.00000E+000	-6.56950E-001	1.42298E-003	7	...........	-327.66
	130	0.262	-6.47615E-001	8.75163E-007	0.00000E+000	-6.46950E-001	1.39540E-003	7	...........	-327.66
	131	0.264	-6.37647E-001	1.05827E-006	0.00000E+000	-6.36950E-001	1.38333E-003	7	...........	-327.66
	132	0.266	-6.27661E-001	1.26194E-006	0.00000E+000	-6.26950E-001	1.46781E-003	7	...........	-327.66
	133	0.268	-6.17624E-001	1.48506E-006	0.00000E+000	-6.16950E-001	1.47643E-003	7	...........	-327.66
	134	0.27	-6.07709E-001	1.72931E-006	0.00000E+000	-6.06950E-001	1.41609E-003	7	...........	-327.66
	135	0.272	-5.97668E-001	1.99418E-006	0.00000E+000	-5.96950E-001	1.41781E-003	7	...........	-327.66
	136	0.274	-5.87658E-001	2.27608E-006	0.00000E+000	-5.86950E-001	1.40747E-003	7	...........	-327.66
	137	0.276	-5.77613E-001	2.57617E-006	0.00000E+000	-5.76950E-001	1.40919E-003	7	...........	-327.66
	138	0.278	-5.67680E-001	2.89132E-006	0.00000E+000	-5.66950E-001	1.40229E-003	7	...........	-327.66
	139	0.28	-5.57707E-001	3.21541E-006	0.00000E+000	-5.56950E-001	1.39884E-003	7	...........	-327.66
	140	0.282	-5.47693E-001	3.54925E-006	0.00000E+000	-5.46950E-001	1.44195E-003	7	...........	-327.66
	141	0.284	-5.37691E-001	3.88118E-006	0.00000E+000	-5.36950E-001	1.51091E-003	7	...........	-327.66
	142	0.286	-5.27692E-001	4.19996E-006	0.00000E+000	-5.26950E-001	1.43505E-003	7	...........	-327.66
	143	0.288	-5.17699E-001	4.49609E-006	0.00000E+000	-5.16950E-001	1.42126E-003	7	...........	-327.66
	144	0.29	-5.07712E-001	4.75307E-006	0.00000E+000	-5.06950E-001	1.39367E-003	7	...........	-327.66
	145	0.292	-4.97616E-001	4.96143E-006	0.00000E+000	-4.96950E-001	1.42815E-003	7	...........	-327.66
	146	0.294	-4.87685E-001	5.11205E-006	0.00000E+000	-4.86950E-001	1.49022E-003	7	...........	-327.66
	147	0.296	-4.77673E-001	5.20820E-006	0.00000E+000	-4.76950E-001	1.41953E-003	7	...........	-327.66
	148	0.298	-4.67666E-001	5.24836E-006	0.00000E+000	-4.66950E-001	1.52298E-003	7	...........	-327.66
	149	0.3	-4.57668E-001	5.24640E-006	0.00000E+000	-4.56950E-001	1.49884E-003	7	...........	-327.66
	150	0.302	-4.47689E-001	5.20744E-006	0.00000E+000	-4.46950E-001	1.42471E-003	7	...........	-327.66
	151	0.304	-4.37676E-001	5.14593E-006	0.00000E+000	-4.36950E-001	1.52298E-003	7	...........	-327.66
	152	0.306	-4.27698E-001	5.06825E-006	0.00000E+000	-4.26950E-001	1.45919E-003	7	...........	-327.66
	153	0.308	-4.17659E-001	4.98619E-006	0.00000E+000	-4.16950E-001	1.51953E-003	7	...........	-327.66
	154	0.31	-4.07718E-001	4.90425E-006	0.00000E+000	-4.06950E-001	1.47126E-003	7	...........	-327.66
	155	0.312	-3.97714E-001	4.82672E-006	0.00000E+000	-3.96950E-001	1.40919E-003	7	...........	-327.66
	156	0.314	-3.87715E-001	4.75400E-006	0.00000E+000	-3.86950E-001	1.40574E-003	7	...........	-327.66
	157	0.316	-3.77690E-001	4.69072E-006	0.00000E+000	-3.76950E-001	1.47988E-003	7	...........	-327.66
	158	0.318	-3.67712E-001	4.63528E-006	0.00000E+000	-3.66950E-001	1.52988E-003	7	...........	-327.66
	159	0.32	-3.57748E-001	4.58834E-006	0.00000E+000	-3.56950E-001	1.44367E-003	7	...........	-327.66
	160	0.322	-3.47704E-001	4.54754E-006	0.00000E+000	-3.46950E-001	1.49022E-003	7	...........	-327.66
	161	0.324	-3.37674E-001	4.51380E-006	0.00000E+000	-3.36950E-001	1.42471E-003	7	...........	-327.66
	162	0.326	-3.27739E-001	4.48467E-006	0.00000E+000	-3.26950E-001	1.40402E-003	7	...........	-327.66
	163	0.328	-3.17717E-001	4.46158E-006	0.00000E+000	-3.16950E-001	1.44022E-003	7	...........	-327.66
	164	0.33	-3.07730E-001	4.44170E-006	0.00000E+000	-3.06950E-001	1.48505E-003	7	...........	-327.66
	165	0.332	-2.97680E-001	4.42668E-006	0.00000E+000	-2.96950E-001	1.45057E-003	7	...........	-327.66
	166	0.334	-2.87717E-001	4.41368E-006	0.00000E+000	-2.86950E-001	1.41436E-003	7	...........	-327.66
	167	0.336	-2.77729E-001	4.40256E-006	0.00000E+000	-2.76950E-001	1.45919E-003	7	...........	-327.66
	168	0.338	-2.67676E-001	4.39371E-006	0.00000E+000	-2.66950E-001	1.41609E-003	7	...........	-327.66
	169	0.34	-2.57685E-001	4.38452E-006	0.00000E+000	-2.56950E-001	1.51609E-003	7	...........	-327.66
	170	0.342	-2.47695E-001	4.37564E-006	0.00000E+000	-2.46950E-001	1.42988E-003	7	...........	-327.66
	171	0.344	-2.37714E-001	4.36660E-006	0.00000E+000	-2.36950E-001	1.42815E-003	7	...........	-327.66
	172	0.346	-2.27729E-001	4.35802E-006	0.00000E+000	-2.26950E-001	1.50919E-003	7	...........	-327.66
	173	0.348	-2.17643E-001	4.34927E-006	0.00000E+000	-2.16950E-001	1.52988E-003	7	...........	-327.66
	174	0.35	-2.07721E-001	4.34089E-006	0.00000E+000	-2.06950E-001	1.41436E-003	7	...........	-327.66
	175	0.352	-1.97755E-001	4.33477E-006	0.00000E+000	-1.96950E-001	1.47471E-003	7	...........	-327.66
	176	0.354	-1.87731E-001	4.32760E-006	0.00000E+000	-1.86950E-001	1.41781E-003	7	...........	-327.66
	177	0.356	-1.77727E-001	4.32156E-006	0.00000E+000	-1.76950E-001	1.39022E-003	7	...........	-327.66
	178	0.358	-1.67718E-001	4.31499E-006	0.00000E+000	-1.66950E-001	1.41436E-003	7	...........	-327.66
	179	0.36	-1.57727E-001	4.31020E-006	0.00000E+000	-1.56950E-001	1.42643E-003	7	...........	-327.66
	180	0.362	-1.47743E-001	4.30444E-006	0.00000E+000	-1.46950E-001	1.41264E-003	7	...........	-327.66
	181	0.364	-1.37721E-001	4.30097E-006	0.00000E+000	-1.36950E-001	1.45574E-003	7	...........	-327.66
	182	0.366	-1.27784E-001	4.29663E-006	0.00000E+000	-1.26950E-001	1.45229E-003	7	...........	-327.66
	183	0.368	-1.17729E-001	4.29277E-006	0.00000E+000	-1.16950E-001	1.48505E-003	7	...........	-327.66
	184	0.37	-1.07766E-001	4.28951E-006	0.00000E+000	-1.06950E-001	1.46436E-003	7	...........	-327.66
	185	0.372	-9.77348E-002	4.28444E-006	0.00000E+000	-9.69500E-002	1.42643E-003	7	...........	-327.66
	186	0.374	-8.77736E-002	4.28106E-006	0.00000E+000	-8.69500E-002	1.46609E-003	7	...........	-327.66
	187	0.376	-7.77132E-002	4.27775E-006	0.00000E+000	-7.69500E-002	1.42815E-003	7	...........	-327.66
	188	0.378	-6.77305E-002	4.27245E-006	0.00000E+000	-6.69500E-002	1.42815E-003	7	...........	-327.66
	189	0.38	-5.76873E-002	4.26762E-006	0.00000E+000	-5.69500E-002	1.45229E-003	7	...........	-327.66
	190	0.382	-4.77623E-002	4.26293E-006	0.00000E+000	-4.69500E-002	1.49712E-003	7	...........	-327.66
	191	0.384	-3.76761E-002	4.25878E-006	0.00000E+000	-3.69500E-002	1.49540E-003	7	...........	-327.66
	192	0.386	-2.77486E-002	4.25290E-006	0.00000E+000	-2.69500E-002	1.46609E-003	7	...........	-327.66
	193	0.388	-1.76951E-002	4.24693E-006	0.00000E+000	-1.69500E-002	1.47988E-003	7	...........	-327.66
	194	0.39	-7.73562E-003	4.24057E-006	0.00000E+000	-6.95001E-003	1.48505E-003	7	...........	-327.66
	195	0.392	2.24455E-003	4.23400E-006	0.00000E+000	3.04998E-003	1.47471E-003	7	...........	-327.66
	196	0.394	1.22902E-002	4.22646E-006	0.00000E+000	1.30500E-002	1.39367E-003	7	...........	-327.66
	197	0.396	2.22937E-002	4.21974E-006	0.00000E+000	2.30500E-002	1.40747E-003	7	...........	-327.66
	198	0.398	3.22808E-002	4.21117E-006	0.00000E+000	3.30500E-002	1.46436E-003	7	...........	-327.66
	199	0.4	4.23187E-002	4.20174E-006	0.00000E+000	4.30500E-002	1.47471E-003	7	...........	-327.66
	200	0.402	5.22782E-002	4.19420E-006	0.00000E+000	5.30500E-002	1.44022E-003	7	...........	-327.66
	201	0.404	6.23014E-002	4.18423E-006	0.00000E+000	6.30500E-002	1.46436E-003	7	...........	-327.66
	202	0.406	7.22868E-002	4.17470E-006	0.00000E+000	7.30500E-002	1.49195E-003	7	...........	-327.66
	203	0.408	8.22695E-002	4.16430E-006	0.00000E+000	8.30500E-002	1.42126E-003	7	...........	-327.66
	204	0.41	9.22971E-002	4.15320E-006	0.00000E+000	9.30500E-002	1.44712E-003	7	...........	-327.66
	205	0.412	1.02303E-001	4.14288E-006	0.00000E+000	1.03050E-001	1.48333E-003	7	...........	-327.66
	206	0.414	1.12276E-001	4.13145E-006	0.00000E+000	1.13050E-001	1.50229E-003	7	...........	-327.66
	207	0.416	1.22322E-001	4.11992E-006	0.00000E+000	1.23050E-001	1.45402E-003	7	...........	-327.66
	208	0.418	1.32293E-001	4.10826E-006	0.00000E+000	1.33050E-001	1.46091E-003	7	...........	-327.66
	209	0.42	1.42345E-001	4.09693E-006	0.00000E+000	1.43050E-001	1.52298E-003	7	...........	-327.66
	210	0.422	1.52285E-001	4.08524E-006	0.00000E+000	1.53050E-001	1.45229E-003	7	...........	-327.66
	211	0.424	1.62300E-001	4.07496E-006	0.00000E+000	1.63050E-001	1.41436E-003	7	...........	-327.66
	212	0.426	1.72322E-001	4.06213E-006	0.00000E+000	1.73050E-001	1.39884E-003	7	...........	-327.66
	213	0.428	1.82299E-001	4.05049E-006	0.00000E+000	1.83050E-001	1.40057E-003	7	...........	-327.66
	214	0.43	1.92298E-001	4.03909E-006	0.00000E+000	1.93050E-001	1.47988E-003	7	...........	-327.66
	215	0.432	2.02274E-001	4.02777E-006	0.00000E+000	2.03050E-001	1.41264E-003	7	...........	-327.66
	216	0.434	2.12256E-001	4.01692E-006	0.00000E+000	2.13050E-001	1.43850E-003	7	...........	-327.66
	217	0.436	2.22311E-001	4.00450E-006	0.00000E+000	2.23050E-001	1.45229E-003	7	...........	-327.66
	218	0.438	2.32230E-001	3.99481E-006	0.00000E+000	2.33050E-001	1.45402E-003	7	...........	-327.66
	219	0.44	2.42275E-001	3.98488E-006	0.00000E+000	2.43050E-001	1.42471E-003	7	...........	-327.66
	220	0.442	2.52260E-001	3.97395E-006	0.00000E+000	2.53050E-001	1.42471E-003	7	...........	-327.66
	221	0.444	2.62268E-001	3.96315E-006	0.00000E+000	2.63050E-001	1.37988E-003	7	...........	-327.66
	222	0.446	2.72227E-001	3.95331E-006	0.00000E+000	2.73050E-001	1.46091E-003	7	...........	-327.66
	223	0.448	2.82242E-001	3.94508E-006	0.00000E+000	2.83050E-001	1.47815E-003	7	...........	-327.66
	224	0.45	2.92263E-001	3.93587E-006	0.00000E+000	2.93050E-001	1.53160E-003	7	...........	-327.66
	225	0.452	3.02281E-001	3.92877E-006	0.00000E+000	3.03050E-001	1.51609E-003	7	...........	-327.66
	226	0.454	3.12201E-001	3.92184E-006	0.00000E+000	3.13050E-001	1.48333E-003	7	...........	-327.66
	227	0.456	3.22308E-001	3.91604E-006	0.00000E+000	3.23050E-001	1.49367E-003	7	...........	-327.66
	228	0.458	3.32258E-001	3.91044E-006	0.00000E+000	3.33050E-001	1.48505E-003	7	...........	-327.66
	229	0.46	3.42297E-001	3.90521E-006	0.00000E+000	3.43050E-001	1.43850E-003	7	...........	-327.66
	230	0.462	3.52246E-001	3.90118E-006	0.00000E+000	3.53050E-001	1.45402E-003	7	...........	-327.66
	231	0.464	3.62234E-001	3.89813E-006	0.00000E+000	3.63050E-001	1.48505E-003	7	...........	-327.66
	232	0.466	3.72267E-001	3.89651E-006	0.00000E+000	3.73050E-001	1.41091E-003	7	...........	-327.66
	233	0.468	3.82267E-001	3.89488E-006	0.00000E+000	3.83050E-001	1.46781E-003	7	...........	-327.66
	234	0.47	3.92218E-001	3.89563E-006	0.00000E+000	3.93050E-001	1.49367E-003	7	...........	-327.66
	235	0.472	4.02258E-001	3.89654E-006	0.00000E+000	4.03050E-001	1.49195E-003	7	...........	-327.66
	236	0.474	4.12208E-001	3.89826E-006	0.00000E+000	4.13050E-001	1.43333E-003	7	...........	-327.66
	237	0.476	4.22312E-001	3.90235E-006	0.00000E+000	4.23050E-001	1.49195E-003	7	...........	-327.66
	238	0.478	4.32223E-001	3.90585E-006	0.00000E+000	4.33050E-001	1.39022E-003	7	...........	-327.66
	239	0.48	4.42215E-001	3.91173E-006	0.00000E+000	4.43050E-001	1.40057E-003	7	...........	-327.66
	240	0.482	4.52207E-001	3.91789E-006	0.00000E+000	4.53050E-001	1.49195E-003	7	...........	-327.66
	241	0.484	4.62268E-001	3.92530E-006	0.00000E+000	4.63050E-001	1.47471E-003	7	...........	-327.66
	242	0.486	4.72230E-001	3.93391E-006	0.00000E+000	4.73050E-001	1.42643E-003	7	...........	-327.66
	243	0.488	4.82216E-001	3.94458E-006	0.00000E+000	4.83050E-001	1.41609E-003	7	...........	-327.66
	244	0.49	4.92191E-001	3.95425E-006	0.00000E+000	4.93050E-001	1.44195E-003	7	...........	-327.66
	245	0.492	5.02281E-001	3.96639E-006	0.00000E+000	5.03050E-001	1.38333E-003	7	...........	-327.66
	246	0.494	5.12186E-001	3.97855E-006	0.00000E+000	5.13050E-001	1.46436E-003	7	...........	-327.66
	247	0.496	5.22244E-001	3.99202E-006	0.00000E+000	5.23050E-001	1.41091E-003	7	...........	-327.66
	248	0.498	5.32250E-001	4.00626E-006	0.00000E+000	5.33050E-001	1.47126E-003	7	...........	-327.66
	249	0.5	5.42241E-001	4.02116E-006	0.00000E+000	5.43050E-001	1.43333E-003	7	...........	-327.66
	250	0.502	5.52217E-001	4.03804E-006	0.00000E+000	5.53050E-001	1.47643E-003	7	...........	-327.66
	251	0.504	5.62217E-001	4.05689E-006	0.00000E+000	5.63050E-001	1.43505E-003	7	...........	-327.66
	252	0.506	5.72176E-001	4.07605E-006	0.00000E+000	5.73050E-001	1.46091E-003	7	...........	-327.66
	253	0.508	5.82290E-001	4.09764E-006	0.00000E+000	5.83050E-001	1.53678E-003	7	...........	-327.66
	254	0.51	5.92168E-001	4.11866E-006	0.00000E+000	5.93050E-001	1.41781E-003	7	...........	-327.66
	255	0.512	6.02276E-001	4.14435E-006	0.00000E+000	6.03050E-001	1.44884E-003	7	...........	-327.66
CURVE2	TABLE
	Pt	T	Vf	Im	Vu	Sig	Ach	IERange	Over	Temp
	#	s	V vs. Ref.	A	V	V	V	#	bits	deg C
	256	0.514	5.91013E-001	2.58593E-006	0.00000E+000	5.90000E-001	1.44195E-003	7	...........	-327.66
	257	0.516	5.80763E-001	1.94845E-006	0.00000E+000	5.80000E-001	1.40747E-003	7	...........	-327.66
	258	0.518	5.70745E-001	1.44438E-006	0.00000E+000	5.70000E-001	1.49367E-003	7	...........	-327.66
	259	0.52	5.60778E-001	1.02451E-006	0.00000E+000	5.60000E-001	1.40229E-003	7	...........	-327.66
	260	0.522	5.50783E-001	6.60875E-007	0.00000E+000	5.50000E-001	1.44367E-003	7	...........	-327.66
	261	0.524	5.40761E-001	3.40728E-007	0.00000E+000	5.40000E-001	1.42815E-003	7	...........	-327.66
	262	0.526	5.30789E-001	5.34991E-008	0.00000E+000	5.30000E-001	1.49540E-003	7	...........	-327.66
	263	0.528	5.20775E-001	-2.07243E-007	0.00000E+000	5.20000E-001	1.49195E-003	7	...........	-327.66
	264	0.53	5.10785E-001	-4.42827E-007	0.00000E+000	5.10000E-001	1.41953E-003	7	...........	-327.66
	265	0.532	5.00839E-001	-6.60202E-007	0.00000E+000	5.00000E-001	1.49367E-003	7	...........	-327.66
	266	0.534	4.90762E-001	-8.60212E-007	0.00000E+000	4.90000E-001	1.50574E-003	7	...........	-327.66
	267	0.536	4.80751E-001	-1.04370E-006	0.00000E+000	4.80000E-001	1.47988E-003	7	...........	-327.66
	268	0.538	4.70771E-001	-1.21404E-006	0.00000E+000	4.70000E-001	1.50057E-003	7	...........	-327.66
	269	0.54	4.60795E-001	-1.37185E-006	0.00000E+000	4.60000E-001	1.50574E-003	7	...........	-327.66
	270	0.542	4.50798E-001	-1.51987E-006	0.00000E+000	4.50000E-001	1.46264E-003	7	...........	-327.66
	271	0.544	4.40758E-001	-1.65941E-006	0.00000E+000	4.40000E-001	1.49884E-003	7	...........	-327.66
	272	0.546	4.30764E-001	-1.78687E-006	0.00000E+000	4.30000E-001	1.47643E-003	7	...........	-327.66
	273	0.548	4.20813E-001	-1.90761E-006	0.00000E+000	4.20000E-001	1.44712E-003	7	...........	-327.66
	274	0.55	4.10782E-001	-2.02206E-006	0.00000E+000	4.10000E-001	1.43505E-003	7	...........	-327.66
	275	0.552	4.00789E-001	-2.12875E-006	0.00000E+000	4.00000E-001	1.41609E-003	7	...........	-327.66
	276	0.554	3.90800E-001	-2.22988E-006	0.00000E+000	3.90000E-001	1.52988E-003	7	...........	-327.66
	277	0.556	3.80800E-001	-2.32401E-006	0.00000E+000	3.80000E-001	1.43160E-003	7	...........	-327.66
	278	0.558	3.70836E-001	-2.41361E-006	0.00000E+000	3.70000E-001	1.42471E-003	7	...........	-327.66
	279	0.56	3.60776E-001	-2.50042E-006	0.00000E+000	3.60000E-001	1.40229E-003	7	...........	-327.66
	280	0.562	3.50820E-001	-2.58079E-006	0.00000E+000	3.50000E-001	1.42988E-003	7	...........	-327.66
	281	0.564	3.40825E-001	-2.65791E-006	0.00000E+000	3.40000E-001	1.50229E-003	7	...........	-327.66
	282	0.566	3.30820E-001	-2.73059E-006	0.00000E+000	3.30000E-001	1.48505E-003	7	...........	-327.66
	283	0.568	3.20807E-001	-2.80018E-006	0.00000E+000	3.20000E-001	1.47126E-003	7	...........	-327.66
	284	0.57	3.10793E-001	-2.86826E-006	0.00000E+000	3.10000E-001	1.44712E-003	7	...........	-327.66
	285	0.572	3.00793E-001	-2.93182E-006	0.00000E+000	3.00000E-001	1.43333E-003	7	...........	-327.66
	286	0.574	2.90815E-001	-2.99188E-006	0.00000E+000	2.90000E-001	1.45919E-003	7	...........	-327.66
	287	0.576	2.80777E-001	-3.05192E-006	0.00000E+000	2.80000E-001	1.40747E-003	7	...........	-327.66
	288	0.578	2.70869E-001	-3.10904E-006	0.00000E+000	2.70000E-001	1.51609E-003	7	...........	-327.66
	289	0.58	2.60766E-001	-3.16425E-006	0.00000E+000	2.60000E-001	1.50057E-003	7	...........	-327.66
	290	0.582	2.50814E-001	-3.21534E-006	0.00000E+000	2.50000E-001	1.47643E-003	7	...........	-327.66
	291	0.584	2.40804E-001	-3.26771E-006	0.00000E+000	2.40000E-001	1.44022E-003	7	...........	-327.66
	292	0.586	2.30806E-001	-3.31687E-006	0.00000E+000	2.30000E-001	1.49712E-003	7	...........	-327.66
	293	0.588	2.20820E-001	-3.36493E-006	0.00000E+000	2.20000E-001	1.40229E-003	7	...........	-327.66
	294	0.59	2.10808E-001	-3.41121E-006	0.00000E+000	2.10000E-001	1.45402E-003	7	...........	-327.66
	295	0.592	2.00815E-001	-3.45608E-006	0.00000E+000	2.00000E-001	1.48333E-003	7	...........	-327.66
	296	0.594	1.90875E-001	-3.49995E-006	0.00000E+000	1.90000E-001	1.49712E-003	7	...........	-327.66
	297	0.596	1.80828E-001	-3.54384E-006	0.00000E+000	1.80000E-001	1.45574E-003	7	...........	-327.66
	298	0.598	1.70870E-001	-3.58527E-006	0.00000E+000	1.70000E-001	1.41264E-003	7	...........	-327.66
	299	0.6	1.60823E-001	-3.62657E-006	0.00000E+000	1.60000E-001	1.40747E-003	7	...........	-327.66
	300	0.602	1.50839E-001	-3.66623E-006	0.00000E+000	1.50000E-001	1.41781E-003	7	...........	-327.66
	301	0.604	1.40894E-001	-3.70415E-006	0.00000E+000	1.40000E-001	1.41953E-003	7	...........	-327.66
	302	0.606	1.30854E-001	-3.74160E-006	0.00000E+000	1.30000E-001	1.45574E-003	7	...........	-327.66
	303	0.608	1.20851E-001	-3.77920E-006	0.00000E+000	1.20000E-001	1.41264E-003	7	...........	-327.66
	304	0.61	1.10832E-001	-3.81337E-006	0.00000E+000	1.10000E-001	1.49884E-003	7	...........	-327.66
	305	0.612	1.00809E-001	-3.84986E-006	0.00000E+000	1.00000E-001	1.51436E-003	7	...........	-327.66
	306	0.614	9.08980E-002	-3.88337E-006	0.00000E+000	9.00000E-002	1.43850E-003	7	...........	-327.66
	307	0.616	8.08066E-002	-3.91746E-006	0.00000E+000	8.00000E-002	1.40574E-003	7	...........	-327.66
	308	0.618	7.08161E-002	-3.94989E-006	0.00000E+000	7.00000E-002	1.42988E-003	7	...........	-327.66
	309	0.62	6.08583E-002	-3.98121E-006	0.00000E+000	6.00000E-002	1.44195E-003	7	...........	-327.66
	310	0.622	5.08273E-002	-4.01209E-006	0.00000E+000	5.00000E-002	1.41609E-003	7	...........	-327.66
	311	0.624	4.08006E-002	-4.04171E-006	0.00000E+000	4.00000E-002	1.44884E-003	7	...........	-327.66
	312	0.626	3.08437E-002	-4.07180E-006	0.00000E+000	3.00000E-002	1.42126E-003	7	...........	-327.66
	313	0.628	2.08325E-002	-4.10005E-006	0.00000E+000	2.00000E-002	1.47298E-003	7	...........	-327.66
	314	0.63	1.08721E-002	-4.12788E-006	0.00000E+000	9.99999E-003	1.49884E-003	7	...........	-327.66
	315	0.632	8.07480E-004	-4.15518E-006	0.00000E+000	-1.49012E-008	1.48160E-003	7	...........	-327.66
	316	0.634	-9.13304E-003	-4.18204E-006	0.00000E+000	-1.00000E-002	1.42126E-003	7	...........	-327.66
	317	0.636	-1.91434E-002	-4.20815E-006	0.00000E+000	-2.00000E-002	1.39022E-003	7	...........	-327.66
	318	0.638	-2.91701E-002	-4.23164E-006	0.00000E+000	-3.00000E-002	1.50402E-003	7	...........	-327.66
	319	0.64	-3.91382E-002	-4.25659E-006	0.00000E+000	-4.00000E-002	1.44022E-003	7	...........	-327.66
	320	0.642	-4.91805E-002	-4.28044E-006	0.00000E+000	-5.00000E-002	1.42643E-003	7	...........	-327.66
	321	0.644	-5.91520E-002	-4.30494E-006	0.00000E+000	-6.00000E-002	1.42815E-003	7	...........	-327.66
	322	0.646	-6.91296E-002	-4.32629E-006	0.00000E+000	-7.00000E-002	1.40229E-003	7	...........	-327.66
	323	0.648	-7.91710E-002	-4.34893E-006	0.00000E+000	-8.00000E-002	1.50229E-003	7	...........	-327.66
	324	0.65	-8.91399E-002	-4.37197E-006	0.00000E+000	-9.00000E-002	1.48333E-003	7	...........	-327.66
	325	0.652	-9.91822E-002	-4.39156E-006	0.00000E+000	-1.00000E-001	1.50919E-003	7	...........	-327.66
	326	0.654	-1.09171E-001	-4.41211E-006	0.00000E+000	-1.10000E-001	1.51264E-003	7	...........	-327.66
	327	0.656	-1.19155E-001	-4.43215E-006	0.00000E+000	-1.20000E-001	1.42126E-003	7	...........	-327.66
	328	0.658	-1.29194E-001	-4.45011E-006	0.00000E+000	-1.30000E-001	1.48850E-003	7	...........	-327.66
	329	0.66	-1.39163E-001	-4.46984E-006	0.00000E+000	-1.40000E-001	1.53160E-003	7	...........	-327.66
	330	0.662	-1.49186E-001	-4.48755E-006	0.00000E+000	-1.50000E-001	1.47815E-003	7	...........	-327.66
	331	0.664	-1.59184E-001	-4.50490E-006	0.00000E+000	-1.60000E-001	1.48160E-003	7	...........	-327.66
	332	0.666	-1.69138E-001	-4.52071E-006	0.00000E+000	-1.70000E-001	1.43505E-003	7	...........	-327.66
	333	0.668	-1.79168E-001	-4.53689E-006	0.00000E+000	-1.80000E-001	1.41091E-003	7	...........	-327.66
	334	0.67	-1.89131E-001	-4.55213E-006	0.00000E+000	-1.90000E-001	1.40229E-003	7	...........	-327.66
	335	0.672	-1.99198E-001	-4.56744E-006	0.00000E+000	-2.00000E-001	1.42126E-003	7	...........	-327.66
	336	0.674	-2.09161E-001	-4.57955E-006	0.00000E+000	-2.10000E-001	1.41781E-003	7	...........	-327.66
	337	0.676	-2.19070E-001	-4.59265E-006	0.00000E+000	-2.20000E-001	1.49367E-003	7	...........	-327.66
	338	0.678	-2.29145E-001	-4.60488E-006	0.00000E+000	-2.30000E-001	1.43678E-003	7	...........	-327.66
	339	0.68	-2.39158E-001	-4.61591E-006	0.00000E+000	-2.40000E-001	1.43505E-003	7	...........	-327.66
	340	0.682	-2.49125E-001	-4.62660E-006	0.00000E+000	-2.50000E-001	1.40747E-003	7	...........	-327.66
	341	0.684	-2.59165E-001	-4.63548E-006	0.00000E+000	-2.60000E-001	1.44022E-003	7	...........	-327.66
	342	0.686	-2.69101E-001	-4.64364E-006	0.00000E+000	-2.70000E-001	1.45747E-003	7	...........	-327.66
	343	0.688	-2.79172E-001	-4.65031E-006	0.00000E+000	-2.80000E-001	1.41781E-003	7	...........	-327.66
	344	0.69	-2.89121E-001	-4.65661E-006	0.00000E+000	-2.90000E-001	1.42643E-003	7	...........	-327.66
	345	0.692	-2.99123E-001	-4.66302E-006	0.00000E+000	-3.00000E-001	1.42643E-003	7	...........	-327.66
	346	0.694	-3.09143E-001	-4.66708E-006	0.00000E+000	-3.10000E-001	1.41091E-003	7	...........	-327.66
	347	0.696	-3.19172E-001	-4.67064E-006	0.00000E+000	-3.20000E-001	1.46264E-003	7	...........	-327.66
	348	0.698	-3.29154E-001	-4.67439E-006	0.00000E+000	-3.30000E-001	1.49195E-003	7	...........	-327.66
	349	0.7	-3.39160E-001	-4.67675E-006	0.00000E+000	-3.40000E-001	1.46264E-003	7	...........	-327.66
	350	0.702	-3.49137E-001	-4.67728E-006	0.00000E+000	-3.50000E-001	1.42988E-003	7	...........	-327.66
	351	0.704	-3.59177E-001	-4.67866E-006	0.00000E+000	-3.60000E-001	1.46091E-003	7	...........	-327.66
	352	0.706	-3.69011E-001	-4.67697E-006	0.00000E+000	-3.70000E-001	1.47126E-003	7	...........	-327.66
	353	0.708	-3.79148E-001	-4.67737E-006	0.00000E+000	-3.80000E-001	1.44367E-003	7	...........	-327.66
	354	0.71	-3.89123E-001	-4.67616E-006	0.00000E+000	-3.90000E-001	1.49540E-003	7	...........	-327.66
	355	0.712	-3.99130E-001	-4.67508E-006	0.00000E+000	-4.00000E-001	1.43850E-003	7	...........	-327.66
	356	0.714	-4.09141E-001	-4.67394E-006	0.00000E+000	-4.10000E-001	1.50402E-003	7	...........	-327.66
	357	0.716	-4.19105E-001	-4.67171E-006	0.00000E+000	-4.20000E-001	1.52298E-003	7	...........	-327.66
	358	0.718	-4.29114E-001	-4.66951E-006	0.00000E+000	-4.30000E-001	1.42126E-003	7	...........	-327.66
	359	0.72	-4.39161E-001	-4.66582E-006	0.00000E+000	-4.40000E-001	1.40747E-003	7	...........	-327.66
	360	0.722	-4.49085E-001	-4.66333E-006	0.00000E+000	-4.50000E-001	1.45057E-003	7	...........	-327.66
	361	0.724	-4.59149E-001	-4.66197E-006	0.00000E+000	-4.60000E-001	1.44712E-003	7	...........	-327.66
	362	0.726	-4.69063E-001	-4.65902E-006	0.00000E+000	-4.70000E-001	1.45057E-003	7	...........	-327.66
	363	0.728	-4.79124E-001	-4.65695E-006	0.00000E+000	-4.80000E-001	1.41091E-003	7	...........	-327.66
	364	0.73	-4.89105E-001	-4.65463E-006	0.00000E+000	-4.90000E-001	1.42643E-003	7	...........	-327.66
	365	0.732	-4.99081E-001	-4.65207E-006	0.00000E+000	-5.00000E-001	1.43160E-003	7	...........	-327.66
	366	0.734	-5.09122E-001	-4.65000E-006	0.00000E+000	-5.10000E-001	1.42126E-003	7	...........	-327.66
	367	0.736	-5.19178E-001	-4.64680E-006	0.00000E+000	-5.20000E-001	1.45057E-003	7	...........	-327.66
	368	0.738	-5.29120E-001	-4.64314E-006	0.00000E+000	-5.30000E-001	1.41436E-003	7	...........	-327.66
	369	0.74	-5.39130E-001	-4.63936E-006	0.00000E+000	-5.40000E-001	1.46436E-003	7	...........	-327.66
	370	0.742	-5.49057E-001	-4.63424E-006	0.00000E+000	-5.50000E-001	1.50057E-003	7	...........	-327.66
	371	0.744	-5.59132E-001	-4.62514E-006	0.00000E+000	-5.60000E-001	1.45747E-003	7	...........	-327.66
	372	0.746	-5.69113E-001	-4.61622E-006	0.00000E+000	-5.70000E-001	1.46091E-003	7	...........	-327.66
	373	0.748	-5.79083E-001	-4.60270E-006	0.00000E+000	-5.80000E-001	1.42988E-003	7	...........	-327.66
	374	0.75	-5.89121E-001	-4.58505E-006	0.00000E+000	-5.90000E-001	1.40402E-003	7	...........	-327.66
	375	0.752	-5.99115E-001	-4.56225E-006	0.00000E+000	-6.00000E-001	1.41781E-003	7	...........	-327.66
[...]
	700	1.402	-8.49136E-001	-1.42793E-006	0.00000E+000	-8.50000E-001	1.47643E-003	7	...........	-327.66
	701	1.404	-8.59075E-001	-1.33890E-006	0.00000E+000	-8.60000E-001	1.40747E-003	7	...........	-327.66
	702	1.406	-8.69134E-001	-1.26020E-006	0.00000E+000	-8.70000E-001	1.46953E-003	7	...........	-327.66
	703	1.408	-8.79158E-001	-1.18838E-006	0.00000E+000	-8.80000E-001	1.40057E-003	7	...........	-327.66
	704	1.41	-8.89096E-001	-1.12464E-006	0.00000E+000	-8.90000E-001	1.50057E-003	7	...........	-327.66
	705	1.412	-8.99138E-001	-1.06895E-006	0.00000E+000	-9.00000E-001	1.46781E-003	7	...........	-327.66
	706	1.414	-8.90709E-001	-9.41516E-007	0.00000E+000	-8.90000E-001	1.44367E-003	7	...........	-327.66
	707	1.416	-8.80719E-001	-8.51003E-007	0.00000E+000	-8.80000E-001	1.48678E-003	7	...........	-327.66
	708	1.418	-8.70735E-001	-7.81304E-007	0.00000E+000	-8.70000E-001	1.42643E-003	7	...........	-327.66
	709	1.42	-8.60651E-001	-7.20331E-007	0.00000E+000	-8.60000E-001	1.46609E-003	7	...........	-327.66
	710	1.422	-8.50674E-001	-6.65357E-007	0.00000E+000	-8.50000E-001	1.47298E-003	7	...........	-327.66
	711	1.424	-8.40680E-001	-6.17644E-007	0.00000E+000	-8.40000E-001	1.42815E-003	7	...........	-327.66
	712	1.426	-8.30518E-001	-5.72259E-007	0.00000E+000	-8.30000E-001	1.40747E-003	7	...........	-327.66
	713	1.428	-8.20711E-001	-5.27546E-007	0.00000E+000	-8.20000E-001	1.45402E-003	7	...........	-327.66
	714	1.43	-8.10611E-001	-4.81833E-007	0.00000E+000	-8.10000E-001	1.50229E-003	7	...........	-327.66
	715	1.432	-8.00706E-001	-4.39447E-007	0.00000E+000	-8.00000E-001	1.41264E-003	7	...........	-327.66
	716	1.434	-7.90676E-001	-3.94148E-007	0.00000E+000	-7.90000E-001	1.45574E-003	7	...........	-327.66
	717	1.436	-7.80565E-001	-3.46573E-007	0.00000E+000	-7.80000E-001	1.46953E-003	7	...........	-327.66
	718	1.438	-7.70640E-001	-2.97083E-007	0.00000E+000	-7.70000E-001	1.47471E-003	7	...........	-327.66
	719	1.44	-7.60710E-001	-2.42593E-007	0.00000E+000	-7.60000E-001	1.39884E-003	7	...........	-327.66
	720	1.442	-7.50692E-001	-1.83292E-007	0.00000E+000	-7.50000E-001	1.42126E-003	7	...........	-327.66
	721	1.444	-7.40723E-001	-1.19283E-007	0.00000E+000	-7.40000E-001	1.42643E-003	7	...........	-327.66
	722	1.446	-7.30677E-001	-4.74974E-008	0.00000E+000	-7.30000E-001	1.45747E-003	7	...........	-327.66
	723	1.448	-7.20742E-001	3.20134E-008	0.00000E+000	-7.20000E-001	1.41436E-003	7	...........	-327.66
	724	1.45	-7.10705E-001	1.20112E-007	0.00000E+000	-7.10000E-001	1.46264E-003	7	...........	-327.66
	725	1.452	-7.00732E-001	2.16211E-007	0.00000E+000	-7.00000E-001	1.51953E-003	7	...........	-327.66
	726	1.454	-6.90703E-001	3.26243E-007	0.00000E+000	-6.90000E-001	1.48505E-003	7	...........	-327.66
	727	1.456	-6.80667E-001	4.48174E-007	0.00000E+000	-6.80000E-001	1.46091E-003	7	...........	-327.66
	728	1.458	-6.70642E-001	5.83985E-007	0.00000E+000	-6.70000E-001	1.43678E-003	7	...........	-327.66
	729	1.46	-6.60717E-001	7.34695E-007	0.00000E+000	-6.60000E-001	1.46091E-003	7	...........	-327.66
	730	1.462	-6.50667E-001	9.04063E-007	0.00000E+000	-6.50000E-001	1.46609E-003	7	...........	-327.66
	731	1.464	-6.40737E-001	1.09092E-006	0.00000E+000	-6.40000E-001	1.43505E-003	7	...........	-327.66
	732	1.466	-6.30691E-001	1.29889E-006	0.00000E+000	-6.30000E-001	1.41264E-003	7	...........	-327.66
	733	1.468	-6.20705E-001	1.52522E-006	0.00000E+000	-6.20000E-001	1.44195E-003	7	...........	-327.66
	734	1.47	-6.10784E-001	1.77087E-006	0.00000E+000	-6.10000E-001	1.42988E-003	7	...........	-327.66
	735	1.472	-6.00741E-001	2.03803E-006	0.00000E+000	-6.00000E-001	1.46609E-003	7	...........	-327.66
	736	1.474	-5.90746E-001	2.32548E-006	0.00000E+000	-5.90000E-001	1.38160E-003	7	...........	-327.66
	737	1.476	-5.80714E-001	2.63132E-006	0.00000E+000	-5.80000E-001	1.44367E-003	7	...........	-327.66
	738	1.478	-5.70744E-001	2.94676E-006	0.00000E+000	-5.70000E-001	1.50229E-003	7	...........	-327.66
	739	1.48	-5.60740E-001	3.27473E-006	0.00000E+000	-5.60000E-001	1.42815E-003	7	...........	-327.66
	740	1.482	-5.50661E-001	3.60848E-006	0.00000E+000	-5.50000E-001	1.41781E-003	7	...........	-327.66
	741	1.484	-5.40767E-001	3.93717E-006	0.00000E+000	-5.40000E-001	1.43160E-003	7	...........	-327.66
	742	1.486	-5.30772E-001	4.25352E-006	0.00000E+000	-5.30000E-001	1.46609E-003	7	...........	-327.66
	743	1.488	-5.20756E-001	4.54294E-006	0.00000E+000	-5.20000E-001	1.49022E-003	7	...........	-327.66
	744	1.49	-5.10761E-001	4.79135E-006	0.00000E+000	-5.10000E-001	1.46953E-003	7	...........	-327.66
	745	1.492	-5.00712E-001	4.98640E-006	0.00000E+000	-5.00000E-001	1.44540E-003	7	...........	-327.66
	746	1.494	-4.90762E-001	5.12198E-006	0.00000E+000	-4.90000E-001	1.42815E-003	7	...........	-327.66
	747	1.496	-4.80751E-001	5.19872E-006	0.00000E+000	-4.80000E-001	1.45057E-003	7	...........	-327.66
	748	1.498	-4.70717E-001	5.22144E-006	0.00000E+000	-4.70000E-001	1.43678E-003	7	...........	-327.66
	749	1.5	-4.60768E-001	5.19818E-006	0.00000E+000	-4.60000E-001	1.41609E-003	7	...........	-327.66
	750	1.502	-4.50735E-001	5.14164E-006	0.00000E+000	-4.50000E-001	1.40402E-003	7	...........	-327.66
	751	1.504	-4.40755E-001	5.06487E-006	0.00000E+000	-4.40000E-001	1.45574E-003	7	...........	-327.66
	752	1.506	-4.30776E-001	4.97620E-006	0.00000E+000	-4.30000E-001	1.45402E-003	7	...........	-327.66
	753	1.508	-4.20744E-001	4.88390E-006	0.00000E+000	-4.20000E-001	1.38505E-003	7	...........	-327.66
	754	1.51	-4.10782E-001	4.79345E-006	0.00000E+000	-4.10000E-001	1.39540E-003	7	...........	-327.66
	755	1.512	-4.00778E-001	4.70913E-006	0.00000E+000	-4.00000E-001	1.40574E-003	7	...........	-327.66
	756	1.514	-3.90761E-001	4.63478E-006	0.00000E+000	-3.90000E-001	1.42126E-003	7	...........	-327.66
	757	1.516	-3.80785E-001	4.56815E-006	0.00000E+000	-3.80000E-001	1.45229E-003	7	...........	-327.66
	758	1.518	-3.70735E-001	4.51226E-006	0.00000E+000	-3.70000E-001	1.45747E-003	7	...........	-327.66
	759	1.52	-3.60783E-001	4.46488E-006	0.00000E+000	-3.60000E-001	1.39022E-003	7	...........	-327.66
	760	1.522	-3.50776E-001	4.42741E-006	0.00000E+000	-3.50000E-001	1.49712E-003	7	...........	-327.66
	761	1.524	-3.40786E-001	4.39569E-006	0.00000E+000	-3.40000E-001	1.41436E-003	7	...........	-327.66
	762	1.526	-3.30797E-001	4.37221E-006	0.00000E+000	-3.30000E-001	1.41953E-003	7	...........	-327.66
	763	1.528	-3.20781E-001	4.35133E-006	0.00000E+000	-3.20000E-001	1.42815E-003	7	...........	-327.66
	764	1.53	-3.10787E-001	4.33400E-006	0.00000E+000	-3.10000E-001	1.41781E-003	7	...........	-327.66
	765	1.532	-3.00778E-001	4.31836E-006	0.00000E+000	-3.00000E-001	1.46264E-003	7	...........	-327.66
	766	1.534	-2.90754E-001	4.30439E-006	0.00000E+000	-2.90000E-001	1.51609E-003	7	...........	-327.66
	767	1.536	-2.80802E-001	4.29285E-006	0.00000E+000	-2.80000E-001	1.47126E-003	7	...........	-327.66
	768	1.538	-2.70713E-001	4.28328E-006	0.00000E+000	-2.70000E-001	1.42126E-003	7	...........	-327.66
	769	1.54	-2.60785E-001	4.27356E-006	0.00000E+000	-2.60000E-001	1.39540E-003	7	...........	-327.66
	770	1.542	-2.50773E-001	4.26575E-006	0.00000E+000	-2.50000E-001	1.48678E-003	7	...........	-327.66
	771	1.544	-2.40749E-001	4.25900E-006	0.00000E+000	-2.40000E-001	1.42643E-003	7	...........	-327.66
	772	1.546	-2.30768E-001	4.25361E-006	0.00000E+000	-2.30000E-001	1.48505E-003	7	...........	-327.66
	773	1.548	-2.20724E-001	4.24723E-006	0.00000E+000	-2.20000E-001	1.44884E-003	7	...........	-327.66
	774	1.55	-2.10772E-001	4.24197E-006	0.00000E+000	-2.10000E-001	1.39540E-003	7	...........	-327.66
	775	1.552	-2.00808E-001	4.23672E-006	0.00000E+000	-2.00000E-001	1.54022E-003	7	...........	-327.66
	776	1.554	-1.90756E-001	4.23347E-006	0.00000E+000	-1.90000E-001	1.38678E-003	7	...........	-327.66
	777	1.556	-1.80799E-001	4.22862E-006	0.00000E+000	-1.80000E-001	1.40057E-003	7	...........	-327.66
	778	1.558	-1.70820E-001	4.22653E-006	0.00000E+000	-1.70000E-001	1.43505E-003	7	...........	-327.66
	779	1.56	-1.60788E-001	4.22174E-006	0.00000E+000	-1.60000E-001	1.41264E-003	7	...........	-327.66
	780	1.562	-1.50827E-001	4.21926E-006	0.00000E+000	-1.50000E-001	1.50747E-003	7	...........	-327.66
	781	1.564	-1.40775E-001	4.21746E-006	0.00000E+000	-1.40000E-001	1.49884E-003	7	...........	-327.66
	782	1.566	-1.30819E-001	4.21467E-006	0.00000E+000	-1.30000E-001	1.40057E-003	7	...........	-327.66
	783	1.568	-1.20817E-001	4.21282E-006	0.00000E+000	-1.20000E-001	1.40402E-003	7	...........	-327.66
	784	1.57	-1.10810E-001	4.21070E-006	0.00000E+000	-1.10000E-001	1.42643E-003	7	...........	-327.66
	785	1.572	-1.00805E-001	4.20860E-006	0.00000E+000	-1.00000E-001	1.46264E-003	7	...........	-327.66
	786	1.574	-9.07848E-002	4.20708E-006	0.00000E+000	-9.00000E-002	1.47471E-003	7	...........	-327.66
	787	1.576	-8.07899E-002	4.20470E-006	0.00000E+000	-8.00000E-002	1.44884E-003	7	...........	-327.66
	788	1.578	-7.07968E-002	4.20225E-006	0.00000E+000	-7.00000E-002	1.44022E-003	7	...........	-327.66
	789	1.58	-6.07882E-002	4.19955E-006	0.00000E+000	-6.00000E-002	1.51609E-003	7	...........	-327.66
	790	1.582	-5.08115E-002	4.19775E-006	0.00000E+000	-5.00000E-002	1.45229E-003	7	...........	-327.66
	791	1.584	-4.07658E-002	4.19420E-006	0.00000E+000	-4.00000E-002	1.46781E-003	7	...........	-327.66
	792	1.586	-3.07899E-002	4.19194E-006	0.00000E+000	-3.00000E-002	1.43505E-003	7	...........	-327.66
	793	1.588	-2.07865E-002	4.18710E-006	0.00000E+000	-2.00000E-002	1.46091E-003	7	...........	-327.66
	794	1.59	-1.07718E-002	4.18339E-006	0.00000E+000	-1.00000E-002	1.45919E-003	7	...........	-327.66
	795	1.592	-8.01141E-004	4.17913E-006	0.00000E+000	-1.49012E-008	1.50919E-003	7	...........	-327.66
	796	1.594	9.21696E-003	4.17408E-006	0.00000E+000	9.99999E-003	1.47298E-003	7	...........	-327.66
	797	1.596	1.92187E-002	4.16890E-006	0.00000E+000	2.00000E-002	1.47643E-003	7	...........	-327.66
	798	1.598	2.92075E-002	4.16215E-006	0.00000E+000	3.00000E-002	1.45747E-003	7	...........	-327.66
	799	1.6	3.91411E-002	4.15597E-006	0.00000E+000	4.00000E-002	1.44884E-003	7	...........	-327.66
	800	1.602	4.92109E-002	4.15002E-006	0.00000E+000	5.00000E-002	1.46264E-003	7	...........	-327.66
	801	1.604	5.92239E-002	4.14221E-006	0.00000E+000	6.00000E-002	1.44540E-003	7	...........	-327.66
	802	1.606	6.92256E-002	4.13431E-006	0.00000E+000	7.00000E-002	1.45747E-003	7	...........	-327.66
	803	1.608	7.91937E-002	4.12680E-006	0.00000E+000	8.00000E-002	1.39540E-003	7	...........	-327.66
	804	1.61	8.92713E-002	4.11854E-006	0.00000E+000	9.00000E-002	1.42815E-003	7	...........	-327.66
	805	1.612	9.92144E-002	4.10990E-006	0.00000E+000	1.00000E-001	1.52988E-003	7	...........	-327.66
	806	1.614	1.09216E-001	4.10055E-006	0.00000E+000	1.10000E-001	1.43678E-003	7	...........	-327.66
	807	1.616	1.19235E-001	4.09003E-006	0.00000E+000	1.20000E-001	1.50402E-003	7	...........	-327.66
	808	1.618	1.29252E-001	4.08208E-006	0.00000E+000	1.30000E-001	1.49540E-003	7	...........	-327.66
	809	1.62	1.39264E-001	4.07103E-006	0.00000E+000	1.40000E-001	1.47126E-003	7	...........	-327.66
	810	1.622	1.49210E-001	4.06286E-006	0.00000E+000	1.50000E-001	1.45057E-003	7	...........	-327.66
	811	1.624	1.59201E-001	4.05308E-006	0.00000E+000	1.60000E-001	1.43678E-003	7	...........	-327.66
	812	1.626	1.69260E-001	4.04327E-006	0.00000E+000	1.70000E-001	1.51781E-003	7	...........	-327.66
	813	1.628	1.79226E-001	4.03371E-006	0.00000E+000	1.80000E-001	1.39884E-003	7	...........	-327.66
	814	1.63	1.89218E-001	4.02378E-006	0.00000E+000	1.90000E-001	1.42643E-003	7	...........	-327.66
	815	1.632	1.99225E-001	4.01409E-006	0.00000E+000	2.00000E-001	1.46436E-003	7	...........	-327.66
	816	1.634	2.09154E-001	4.00471E-006	0.00000E+000	2.10000E-001	1.41781E-003	7	...........	-327.66
	817	1.636	2.19198E-001	3.99652E-006	0.00000E+000	2.20000E-001	1.43678E-003	7	...........	-327.66
	818	1.638	2.29200E-001	3.98685E-006	0.00000E+000	2.30000E-001	1.45229E-003	7	...........	-327.66
	819	1.64	2.39192E-001	3.97874E-006	0.00000E+000	2.40000E-001	1.44712E-003	7	...........	-327.66
	820	1.642	2.49226E-001	3.97053E-006	0.00000E+000	2.50000E-001	1.46609E-003	7	...........	-327.66
	821	1.644	2.59186E-001	3.96082E-006	0.00000E+000	2.60000E-001	1.50574E-003	7	...........	-327.66
	822	1.646	2.69232E-001	3.95369E-006	0.00000E+000	2.70000E-001	1.43505E-003	7	...........	-327.66
	823	1.648	2.79188E-001	3.94651E-006	0.00000E+000	2.80000E-001	1.41264E-003	7	...........	-327.66
	824	1.65	2.89189E-001	3.93958E-006	0.00000E+000	2.90000E-001	1.42643E-003	7	...........	-327.66
	825	1.652	2.99183E-001	3.93270E-006	0.00000E+000	3.00000E-001	1.47815E-003	7	...........	-327.66
	826	1.654	3.09191E-001	3.92848E-006	0.00000E+000	3.10000E-001	1.49022E-003	7	...........	-327.66
	827	1.656	3.19206E-001	3.92363E-006	0.00000E+000	3.20000E-001	1.48333E-003	7	...........	-327.66
	828	1.658	3.29200E-001	3.91961E-006	0.00000E+000	3.30000E-001	1.39195E-003	7	...........	-327.66
	829	1.66	3.39191E-001	3.91608E-006	0.00000E+000	3.40000E-001	1.48160E-003	7	...........	-327.66
	830	1.662	3.49231E-001	3.91349E-006	0.00000E+000	3.50000E-001	1.46953E-003	7	...........	-327.66
	831	1.664	3.59188E-001	3.91240E-006	0.00000E+000	3.60000E-001	1.44884E-003	7	...........	-327.66
	832	1.666	3.69195E-001	3.91146E-006	0.00000E+000	3.70000E-001	1.39022E-003	7	...........	-327.66
	833	1.668	3.79185E-001	3.91102E-006	0.00000E+000	3.80000E-001	1.47471E-003	7	...........	-327.66
	834	1.67	3.89167E-001	3.91204E-006	0.00000E+000	3.90000E-001	1.44540E-003	7	...........	-327.66
	835	1.672	3.99195E-001	3.91518E-006	0.00000E+000	4.00000E-001	1.46091E-003	7	...........	-327.66
	836	1.674	4.09164E-001	3.91878E-006	0.00000E+000	4.10000E-001	1.41264E-003	7	...........	-327.66
	837	1.676	4.19187E-001	3.92249E-006	0.00000E+000	4.20000E-001	1.46781E-003	7	...........	-327.66
	838	1.678	4.29174E-001	3.92734E-006	0.00000E+000	4.30000E-001	1.41609E-003	7	...........	-327.66
	839	1.68	4.39136E-001	3.93367E-006	0.00000E+000	4.40000E-001	1.46609E-003	7	...........	-327.66
	840	1.682	4.49207E-001	3.94163E-006	0.00000E+000	4.50000E-001	1.45229E-003	7	...........	-327.66
	841	1.684	4.59177E-001	3.94906E-006	0.00000E+000	4.60000E-001	1.47298E-003	7	...........	-327.66
	842	1.686	4.69148E-001	3.96013E-006	0.00000E+000	4.70000E-001	1.47988E-003	7	...........	-327.66
	843	1.688	4.79188E-001	3.97008E-006	0.00000E+000	4.80000E-001	1.40057E-003	7	...........	-327.66
	844	1.69	4.89178E-001	3.98212E-006	0.00000E+000	4.90000E-001	1.44195E-003	7	...........	-327.66
	845	1.692	4.99195E-001	3.99583E-006	0.00000E+000	5.00000E-001	1.46781E-003	7	...........	-327.66
	846	1.694	5.09161E-001	4.00983E-006	0.00000E+000	5.10000E-001	1.42126E-003	7	...........	-327.66
	847	1.696	5.19175E-001	4.02568E-006	0.00000E+000	5.20000E-001	1.37815E-003	7	...........	-327.66
	848	1.698	5.29192E-001	4.04296E-006	0.00000E+000	5.30000E-001	1.40402E-003	7	...........	-327.66
	849	1.7	5.39177E-001	4.06053E-006	0.00000E+000	5.40000E-001	1.38333E-003	7	...........	-327.66
	850	1.702	5.49183E-001	4.08019E-006	0.00000E+000	5.50000E-001	1.49022E-003	7	...........	-327.66
	851	1.704	5.59181E-001	4.10110E-006	0.00000E+000	5.60000E-001	1.41609E-003	7	...........	-327.66
	852	1.706	5.69176E-001	4.12250E-006	0.00000E+000	5.70000E-001	1.41609E-003	7	...........	-327.66
	853	1.708	5.79189E-001	4.14573E-006	0.00000E+000	5.80000E-001	1.42988E-003	7	...........	-327.66
	854	1.71	5.89166E-001	4.16930E-006	0.00000E+000	5.90000E-001	1.48160E-003	7	...........	-327.66
	855	1.712	5.99172E-001	4.19370E-006	0.00000E+000	6.00000E-001	1.47815E-003	7	...........	-327.66
CURVE4	TABLE
	Pt	T	Vf	Im	Vu	Sig	Ach	IERange	Over	Temp
	#	s	V vs. Ref.	A	V	V	V	#	bits	deg C
	856	1.714	5.90766E-001	2.80860E-006	0.00000E+000	5.90000E-001	1.41436E-003	7	...........	-327.66
	857	1.716	5.80760E-001	2.04572E-006	0.00000E+000	5.80000E-001	1.53678E-003	7	...........	-327.66
	858	1.718	5.70764E-001	1.48868E-006	0.00000E+000	5.70000E-001	1.50057E-003	7	...........	-327.66
	859	1.72	5.60764E-001	1.03393E-006	0.00000E+000	5.60000E-001	1.47471E-003	7	...........	-327.66
	860	1.722	5.50769E-001	6.45545E-007	0.00000E+000	5.50000E-001	1.40057E-003	7	...........	-327.66
	861	1.724	5.40763E-001	3.06344E-007	0.00000E+000	5.40000E-001	1.45057E-003	7	...........	-327.66
	862	1.726	5.30788E-001	3.50950E-009	0.00000E+000	5.30000E-001	1.39195E-003	7	...........	-327.66
	863	1.728	5.20770E-001	-2.67665E-007	0.00000E+000	5.20000E-001	1.40057E-003	7	...........	-327.66
	864	1.73	5.10770E-001	-5.14302E-007	0.00000E+000	5.10000E-001	1.47815E-003	7	...........	-327.66
	865	1.732	5.00830E-001	-7.37747E-007	0.00000E+000	5.00000E-001	1.41609E-003	7	...........	-327.66
	866	1.734	4.90782E-001	-9.43154E-007	0.00000E+000	4.90000E-001	1.39884E-003	7	...........	-327.66
	867	1.736	4.80757E-001	-1.13252E-006	0.00000E+000	4.80000E-001	1.42815E-003	7	...........	-327.66
	868	1.738	4.70772E-001	-1.30522E-006	0.00000E+000	4.70000E-001	1.36436E-003	7	...........	-327.66
	869	1.74	4.60772E-001	-1.46640E-006	0.00000E+000	4.60000E-001	1.47643E-003	7	...........	-327.66
	870	1.742	4.50837E-001	-1.61650E-006	0.00000E+000	4.50000E-001	1.48333E-003	7	...........	-327.66
	871	1.744	4.40757E-001	-1.75652E-006	0.00000E+000	4.40000E-001	1.51436E-003	7	...........	-327.66
	872	1.746	4.30777E-001	-1.88539E-006	0.00000E+000	4.30000E-001	1.38678E-003	7	...........	-327.66
	873	1.748	4.20810E-001	-2.00704E-006	0.00000E+000	4.20000E-001	1.45574E-003	7	...........	-327.66
	874	1.75	4.10787E-001	-2.12059E-006	0.00000E+000	4.10000E-001	1.41091E-003	7	...........	-327.66
	875	1.752	4.00787E-001	-2.22762E-006	0.00000E+000	4.00000E-001	1.45402E-003	7	...........	-327.66
	876	1.754	3.90796E-001	-2.32858E-006	0.00000E+000	3.90000E-001	1.45574E-003	7	...........	-327.66
	877	1.756	3.80811E-001	-2.42170E-006	0.00000E+000	3.80000E-001	1.45747E-003	7	...........	-327.66
	878	1.758	3.70801E-001	-2.51002E-006	0.00000E+000	3.70000E-001	1.43850E-003	7	...........	-327.66
	879	1.76	3.60773E-001	-2.59479E-006	0.00000E+000	3.60000E-001	1.42298E-003	7	...........	-327.66
	880	1.762	3.50825E-001	-2.67453E-006	0.00000E+000	3.50000E-001	1.38850E-003	7	...........	-327.66
	881	1.764	3.40814E-001	-2.74916E-006	0.00000E+000	3.40000E-001	1.44022E-003	7	...........	-327.66
	882	1.766	3.30813E-001	-2.82113E-006	0.00000E+000	3.30000E-001	1.45919E-003	7	...........	-327.66
	883	1.768	3.20806E-001	-2.88973E-006	0.00000E+000	3.20000E-001	1.46781E-003	7	...........	-327.66
	884	1.77	3.10776E-001	-2.95403E-006	0.00000E+000	3.10000E-001	1.44540E-003	7	...........	-327.66
	885	1.772	3.00803E-001	-3.01623E-006	0.00000E+000	3.00000E-001	1.45574E-003	7	...........	-327.66
	886	1.774	2.90787E-001	-3.07457E-006	0.00000E+000	2.90000E-001	1.46953E-003	7	...........	-327.66
	887	1.776	2.80795E-001	-3.13250E-006	0.00000E+000	2.80000E-001	1.50747E-003	7	...........	-327.66
	888	1.778	2.70836E-001	-3.18708E-006	0.00000E+000	2.70000E-001	1.44884E-003	7	...........	-327.66
	889	1.78	2.60782E-001	-3.23979E-006	0.00000E+000	2.60000E-001	1.40919E-003	7	...........	-327.66
	890	1.782	2.50829E-001	-3.28868E-006	0.00000E+000	2.50000E-001	1.47815E-003	7	...........	-327.66
	891	1.784	2.40801E-001	-3.33808E-006	0.00000E+000	2.40000E-001	1.46953E-003	7	...........	-327.66
	892	1.786	2.30802E-001	-3.38571E-006	0.00000E+000	2.30000E-001	1.47643E-003	7	...........	-327.66
	893	1.788	2.20840E-001	-3.43089E-006	0.00000E+000	2.20000E-001	1.47298E-003	7	...........	-327.66
	894	1.79	2.10796E-001	-3.47577E-006	0.00000E+000	2.10000E-001	1.44712E-003	7	...........	-327.66
	895	1.792	2.00798E-001	-3.51783E-006	0.00000E+000	2.00000E-001	1.41609E-003	7	...........	-327.66
	896	1.794	1.90842E-001	-3.55863E-006	0.00000E+000	1.90000E-001	1.43333E-003	7	...........	-327.66
	897	1.796	1.80806E-001	-3.59991E-006	0.00000E+000	1.80000E-001	1.41264E-003	7	...........	-327.66
	898	1.798	1.70858E-001	-3.63849E-006	0.00000E+000	1.70000E-001	1.44884E-003	7	...........	-327.66
	899	1.8	1.60820E-001	-3.67679E-006	0.00000E+000	1.60000E-001	1.45057E-003	7	...........	-327.66
	900	1.802	1.50838E-001	-3.71315E-006	0.00000E+000	1.50000E-001	1.44540E-003	7	...........	-327.66