File: Test_Data_Files/20250424_C_CHI105_2mmAu_E000_PBSarg_CV50.DTA
EXPLAIN
TAG	CV
TITLE	LABEL	Cyclic Voltammetry	Test &Identifier
DATE	LABEL	4/24/2025	Date
TIME	LABEL	16:49:23	Time
NOTES	NOTES	3	&Notes...

PSTAT	PSTAT	IFC1010-32247	Potentiostat
VINIT	POTEN	0.00000E+000	T	Initial &E (V)
VLIMIT1	POTEN	-6.00000E-001	F	Scan Limit &1 (V)
VLIMIT2	POTEN	8.00000E-001	F	Scan Limit &2 (V)
VFINAL	POTEN	0.00000E+000	T	Final &E (V)
SCANRATE	QUANT	4.99999E+001	&Scan Rate (mV/s)
STEPSIZE	QUANT	1.00000E+001	St&ep Size (mV)
CYCLES	IQUANT	3	C&ycles (#)
IMODE	SELECTOR	1	I/E Range &Mode
IRANGE	QUANT	1.00000E-002	&Max Current (mA)
AREA	QUANT	1.00000E+000	Electrode &Area (cm^2)
ELECTRODETYPE	SELECTOR	0	Electrode Type
STRIPPING	TOGGLE	F	Used for Stripping
CONDIT	TWOPARAM	F	1.50000E+001	0.00000E+000	Conditionin&g	Time(s)	E(V)
DELAY	TWOPARAM	T	1.50000E+001	0.00000E+000	Init. De&lay	Time(s)	Stab.(mV/s)
EQDELAY	QUANT	0.00000E+000	Equil. &Time (s)
IRCOMP	SELECTOR	0	IRCom&p
PFCOR	QUANT	5.00000E+001	PF Corr. (ohm)
SAMPLINGMODE	SELECTOR	2	Sampling &Mode
OCVCURVE	TABLE	58
	Pt	T	Vf	Vm	Ach	Over	Temp
	#	s	V vs. Ref.	V	V	bits	deg C
	0	0.258333	3.41411E-001	3.41411E-001	0.00000E+000	...........	1368.00
	1	0.516667	3.41406E-001	3.41153E-001	0.00000E+000	...........	1368.00
	2	0.775	3.41375E-001	3.40883E-001	0.00000E+000	...........	1368.00
	3	1.03333	3.41287E-001	3.40619E-001	0.00000E+000	...........	1368.00
	4	1.29167	3.41124E-001	3.40364E-001	0.00000E+000	...........	1368.00
	5	1.55	3.40903E-001	3.40086E-001	0.00000E+000	...........	1368.00
	6	1.80833	3.40649E-001	3.39830E-001	0.00000E+000	...........	1368.00
	7	2.06667	3.40383E-001	3.39555E-001	0.00000E+000	...........	1368.00
	8	2.325	3.40115E-001	3.39318E-001	0.00000E+000	...........	1368.00
	9	2.58333	3.39850E-001	3.39060E-001	0.00000E+000	...........	1368.00
	10	2.84167	3.39589E-001	3.38782E-001	0.00000E+000	...........	1368.00
	11	3.1	3.39331E-001	3.38547E-001	0.00000E+000	...........	1368.00
	12	3.35833	3.39073E-001	3.38285E-001	0.00000E+000	...........	1368.00
	13	3.61667	3.38816E-001	3.38016E-001	0.00000E+000	...........	1368.00
	14	3.875	3.38559E-001	3.37757E-001	0.00000E+000	...........	1368.00
	15	4.13333	3.38300E-001	3.37503E-001	0.00000E+000	...........	1368.00
	16	4.39167	3.38040E-001	3.37259E-001	0.00000E+000	...........	1368.00
	17	4.65	3.37782E-001	3.36974E-001	0.00000E+000	...........	1368.00
	18	4.90833	3.37524E-001	3.36728E-001	0.00000E+000	...........	1367.95
	19	5.16667	3.37266E-001	3.36471E-001	0.00000E+000	...........	1367.83
	20	5.425	3.37007E-001	3.36235E-001	0.00000E+000	...........	1367.83
	21	5.68333	3.36750E-001	3.35976E-001	0.00000E+000	...........	1367.83
	22	5.94167	3.36497E-001	3.35703E-001	0.00000E+000	...........	1367.91
	23	6.2	3.36244E-001	3.35443E-001	0.00000E+000	...........	1367.91
	24	6.45833	3.35987E-001	3.35177E-001	0.00000E+000	...........	1367.91
	25	6.71667	3.35727E-001	3.34937E-001	0.00000E+000	...........	1367.91
	26	6.975	3.35466E-001	3.34688E-001	0.00000E+000	...........	1367.91
	27	7.23333	3.35208E-001	3.34426E-001	0.00000E+000	...........	1367.91
	28	7.49167	3.34954E-001	3.34164E-001	0.00000E+000	...........	1367.91
	29	7.75	3.34700E-001	3.33908E-001	0.00000E+000	...........	1367.91
	30	8.00833	3.34444E-001	3.33638E-001	0.00000E+000	...........	1368.00
	31	8.26667	3.34186E-001	3.33400E-001	0.00000E+000	...........	1368.00
	32	8.525	3.33926E-001	3.33131E-001	0.00000E+000	...........	1368.00
	33	8.78333	3.33668E-001	3.32856E-001	0.00000E+000	...........	1368.00
	34	9.04167	3.33409E-001	3.32601E-001	0.00000E+000	...........	1368.00
	35	9.3	3.33147E-001	3.32343E-001	0.00000E+000	...........	1368.00
	36	9.5583	3.32884E-001	3.32060E-001	0.00000E+000	...........	1368.00
	37	9.8167	3.32620E-001	3.31802E-001	0.00000E+000	...........	1368.00
	38	10.075	3.32355E-001	3.31533E-001	0.00000E+000	...........	1368.00
	39	10.3333	3.32088E-001	3.31273E-001	0.00000E+000	...........	1368.00
	40	10.5917	3.31822E-001	3.31037E-001	0.00000E+000	...........	1368.00
	41	10.85	3.31560E-001	3.30775E-001	0.00000E+000	...........	1368.00
	42	11.1083	3.31302E-001	3.30513E-001	0.00000E+000	...........	1368.00
	43	11.3667	3.31048E-001	3.30259E-001	0.00000E+000	...........	1368.00
	44	11.625	3.30792E-001	3.29980E-001	0.00000E+000	...........	1368.00
	45	11.8833	3.30533E-001	3.29740E-001	0.00000E+000	...........	1368.00
	46	12.1417	3.30273E-001	3.29481E-001	0.00000E+000	...........	1368.00
	47	12.4	3.30014E-001	3.29229E-001	0.00000E+000	...........	1368.00
	48	12.6583	3.29756E-001	3.28963E-001	0.00000E+000	...........	1368.00
	49	12.9167	3.29500E-001	3.28712E-001	0.00000E+000	...........	1367.80
	50	13.175	3.29244E-001	3.28464E-001	0.00000E+000	...........	1367.57
	51	13.4333	3.28988E-001	3.28193E-001	0.00000E+000	...........	1367.57
	52	13.6917	3.28732E-001	3.27941E-001	0.00000E+000	...........	1367.57
	53	13.95	3.28476E-001	3.27684E-001	0.00000E+000	...........	1367.83
	54	14.2083	3.28218E-001	3.27430E-001	0.00000E+000	...........	1367.83
	55	14.4667	3.27961E-001	3.27165E-001	0.00000E+000	...........	1367.83
	56	14.725	3.27704E-001	3.26913E-001	0.00000E+000	...........	1367.83
	57	14.9833	3.27446E-001	3.26654E-001	0.00000E+000	...........	1367.91
EOC	QUANT	0.3274464	Open Circuit (V)
PSTATMODEL	IQUANT	64	Pstat Model
PSTATSECTION	LABEL	IFC1010-32247	Pstat Section
PSTATSERIALNO	LABEL	32247	Pstat Serial Number
CTRLMODE	IQUANT	1	Control Mode
ELECTROMETER	IQUANT	0	RE=0 or CS=1
IESTAB	IQUANT	2	I/E Stability
CASPEED	IQUANT	4	Control Amp Speed
CONVENTION	IQUANT	1	Current Convention
ICHRANGE	IQUANT	2	Ich Range
ICHRANGEMODE	TOGGLE	F	Ich Auto Range
ICHOFFSETENABLE	TOGGLE	F	Ich Offset Enable
ICHOFFSET	QUANT	0	Ich Offset (V)
ICHFILTER	IQUANT	3	Ich Filter
VCHRANGE	IQUANT	2	Vch Range
VCHRANGEMODE	TOGGLE	F	Vch Auto Range
VCHOFFSETENABLE	TOGGLE	F	Vch Offset Enable
VCHOFFSET	QUANT	0	Vch Offset (V)
VCHFILTER	IQUANT	3	Vch Filter
IERANGELOWERLIMIT	IQUANT	4	I/E Range Lower Limit
IERANGEMODE	TOGGLE	F	I/E AutoRange
IERANGE	IQUANT	8	I/E Range
ACHSELECT	IQUANT	0	Ach Select
ACHRANGE	IQUANT	2	Ach Range
ACHOFFSETENABLE	TOGGLE	F	Ach Offset Enable
ACHOFFSET	QUANT	0	Ach Offset (V)
ACHFILTER	IQUANT	1	Ach Filter
SENSECABLEID	IQUANT	14	Sense Cable ID
PWRCABLEID	IQUANT	14	Power Cable ID
DCCALDATE	LABEL	11/18/2024	DC Calibration Date
ACCALDATE	LABEL	4/18/2022	AC Calibration Date
FRAMEWORKVERSION	LABEL	7.10.3	Framework Version
INSTRUMENTVERSION	LABEL	4.91	Instrument Version
COMMVERSION	LABEL	3.10	Communications Version
CPUPLDVERSION	LABEL	2.22	CPU PLD Version
CTRLPLDVERSION	LABEL	0.00	CTRL PLD Version
PSTATPLDVERSION	LABEL	0.00	PSTAT PLD Version
CURVE1	TABLE
	Pt	T	Vf	Im	Vu	Sig	Ach	IERange	Over	Temp
	#	s	V vs. Ref.	A	V	V	V	#	bits	deg C
	0	0.2	3.27498E-001	5.52008E-009	0.00000E+000	3.27465E-001	0.00000E+000	8	...........	1368.00
	1	0.4	3.17515E-001	-3.85963E-007	0.00000E+000	3.17468E-001	0.00000E+000	8	...........	1368.00
	2	0.6	3.07532E-001	-4.04065E-007	0.00000E+000	3.07470E-001	0.00000E+000	8	...........	1368.00
	3	0.8	2.97491E-001	-4.17445E-007	0.00000E+000	2.97423E-001	0.00000E+000	8	...........	1368.00
	4	1	2.87469E-001	-4.25280E-007	0.00000E+000	2.87425E-001	0.00000E+000	8	...........	1367.96
	5	1.2	2.77475E-001	-4.33331E-007	0.00000E+000	2.77428E-001	0.00000E+000	8	...........	1367.91
	6	1.4	2.67470E-001	-4.40019E-007	0.00000E+000	2.67431E-001	0.00000E+000	8	...........	1367.91
	7	1.6	2.57494E-001	-4.45695E-007	0.00000E+000	2.57433E-001	0.00000E+000	8	...........	1367.91
	8	1.8	2.47495E-001	-4.50529E-007	0.00000E+000	2.47436E-001	0.00000E+000	8	...........	1367.91
	9	2	2.37493E-001	-4.55104E-007	0.00000E+000	2.37438E-001	0.00000E+000	8	...........	1367.69
	10	2.2	2.27488E-001	-4.59870E-007	0.00000E+000	2.27441E-001	0.00000E+000	8	...........	1367.40
	11	2.4	2.17488E-001	-4.63580E-007	0.00000E+000	2.17443E-001	0.00000E+000	8	...........	1367.40
	12	2.6	2.07495E-001	-4.63410E-007	0.00000E+000	2.07446E-001	0.00000E+000	8	...........	1367.40
	13	2.8	1.97492E-001	-4.58314E-007	0.00000E+000	1.97448E-001	0.00000E+000	8	...........	1367.40
	14	3	1.87494E-001	-4.50853E-007	0.00000E+000	1.87451E-001	0.00000E+000	8	...........	1367.40
	15	3.2	1.77493E-001	-4.41453E-007	0.00000E+000	1.77454E-001	0.00000E+000	8	...........	1367.40
	16	3.4	1.67507E-001	-4.31520E-007	0.00000E+000	1.67456E-001	0.00000E+000	8	...........	1367.40
	17	3.6	1.57494E-001	-4.22832E-007	0.00000E+000	1.57459E-001	0.00000E+000	8	...........	1367.40
	18	3.8	1.47509E-001	-4.15419E-007	0.00000E+000	1.47461E-001	0.00000E+000	8	...........	1367.40
	19	4	1.37512E-001	-4.08203E-007	0.00000E+000	1.37464E-001	0.00000E+000	8	...........	1367.36
	20	4.2	1.27525E-001	-4.03241E-007	0.00000E+000	1.27466E-001	0.00000E+000	8	...........	1367.31
	21	4.4	1.17505E-001	-3.98713E-007	0.00000E+000	1.17469E-001	0.00000E+000	8	...........	1367.31
	22	4.6	1.07497E-001	-3.95183E-007	0.00000E+000	1.07471E-001	0.00000E+000	8	...........	1367.31
	23	4.8	9.74585E-002	-3.93279E-007	0.00000E+000	9.74240E-002	0.00000E+000	8	...........	1367.31
	24	5	8.74478E-002	-3.89334E-007	0.00000E+000	8.74266E-002	0.00000E+000	8	...........	1367.31
	25	5.2	7.74710E-002	-3.86259E-007	0.00000E+000	7.74292E-002	0.00000E+000	8	...........	1367.31
	26	5.4	6.74735E-002	-3.83912E-007	0.00000E+000	6.74317E-002	0.00000E+000	8	...........	1367.31
	27	5.6	5.74618E-002	-3.81886E-007	0.00000E+000	5.74343E-002	0.00000E+000	8	...........	1367.31
	28	5.8	4.74592E-002	-3.80016E-007	0.00000E+000	4.74368E-002	0.00000E+000	8	...........	1367.31
	29	6	3.74622E-002	-3.78929E-007	0.00000E+000	3.74394E-002	0.00000E+000	8	...........	1367.27
	30	6.2	2.74875E-002	-3.78257E-007	0.00000E+000	2.74419E-002	0.00000E+000	8	...........	1367.22
	31	6.4	1.74786E-002	-3.78461E-007	0.00000E+000	1.74445E-002	0.00000E+000	8	...........	1367.22
	32	6.6	7.47001E-003	-3.78823E-007	0.00000E+000	7.44706E-003	0.00000E+000	8	...........	1367.22
	33	6.8	-2.54685E-003	-3.80068E-007	0.00000E+000	-2.55038E-003	0.00000E+000	8	...........	1367.22
	34	7	-1.25365E-002	-3.82333E-007	0.00000E+000	-1.25478E-002	0.00000E+000	8	...........	1367.30
	35	7.2	-2.25351E-002	-3.85890E-007	0.00000E+000	-2.25453E-002	0.00000E+000	8	...........	1367.40
	36	7.4	-3.25371E-002	-3.90094E-007	0.00000E+000	-3.25427E-002	0.00000E+000	8	...........	1367.40
	37	7.6	-4.25413E-002	-3.94654E-007	0.00000E+000	-4.25401E-002	0.00000E+000	8	...........	1367.40
	38	7.8	-5.25401E-002	-3.98775E-007	0.00000E+000	-5.25376E-002	0.00000E+000	8	...........	1367.40
	39	8	-6.25240E-002	-4.03977E-007	0.00000E+000	-6.25350E-002	0.00000E+000	8	...........	1367.36
	40	8.2	-7.25271E-002	-4.11637E-007	0.00000E+000	-7.25325E-002	0.00000E+000	8	...........	1367.31
	41	8.4	-8.25181E-002	-4.21664E-007	0.00000E+000	-8.25299E-002	0.00000E+000	8	...........	1367.31
	42	8.6	-9.25877E-002	-4.35142E-007	0.00000E+000	-9.25773E-002	0.00000E+000	8	...........	1367.31
	43	8.8	-1.02567E-001	-4.48511E-007	0.00000E+000	-1.02575E-001	0.00000E+000	8	...........	1367.31
	44	9	-1.12568E-001	-4.64541E-007	0.00000E+000	-1.12572E-001	0.00000E+000	8	...........	1367.31
	45	9.2	-1.22564E-001	-4.82444E-007	0.00000E+000	-1.22570E-001	0.00000E+000	8	...........	1367.31
	46	9.4	-1.32566E-001	-5.00013E-007	0.00000E+000	-1.32567E-001	0.00000E+000	8	...........	1367.31
	47	9.6	-1.42557E-001	-5.17341E-007	0.00000E+000	-1.42565E-001	0.00000E+000	8	...........	1367.31
	48	9.8	-1.52551E-001	-5.33242E-007	0.00000E+000	-1.52562E-001	0.00000E+000	8	...........	1367.31
	49	10	-1.62560E-001	-5.47587E-007	0.00000E+000	-1.62559E-001	0.00000E+000	8	...........	1367.35
	50	10.2	-1.72548E-001	-5.59350E-007	0.00000E+000	-1.72557E-001	0.00000E+000	8	...........	1367.40
	51	10.4	-1.82564E-001	-5.69017E-007	0.00000E+000	-1.82554E-001	0.00000E+000	8	...........	1367.40
	52	10.6	-1.92552E-001	-5.76876E-007	0.00000E+000	-1.92552E-001	0.00000E+000	8	...........	1367.40
	53	10.8	-2.02543E-001	-5.84063E-007	0.00000E+000	-2.02549E-001	0.00000E+000	8	...........	1367.40
	54	11	-2.12549E-001	-5.90138E-007	0.00000E+000	-2.12547E-001	0.00000E+000	8	...........	1367.36
	55	11.2	-2.22532E-001	-5.96031E-007	0.00000E+000	-2.22544E-001	0.00000E+000	8	...........	1367.31
	56	11.4	-2.32542E-001	-6.02876E-007	0.00000E+000	-2.32542E-001	0.00000E+000	8	...........	1367.31
	57	11.6	-2.42531E-001	-6.09032E-007	0.00000E+000	-2.42539E-001	0.00000E+000	8	...........	1367.31
	58	11.8	-2.52538E-001	-6.15793E-007	0.00000E+000	-2.52536E-001	0.00000E+000	8	...........	1367.31
	59	12	-2.62531E-001	-6.23602E-007	0.00000E+000	-2.62534E-001	0.00000E+000	8	...........	1367.35
	60	12.2	-2.72520E-001	-6.31912E-007	0.00000E+000	-2.72531E-001	0.00000E+000	8	...........	1367.40
	61	12.4	-2.82533E-001	-6.41170E-007	0.00000E+000	-2.82529E-001	0.00000E+000	8	...........	1367.40
	62	12.6	-2.92573E-001	-6.51208E-007	0.00000E+000	-2.92576E-001	0.00000E+000	8	...........	1367.40
	63	12.8	-3.02573E-001	-6.60026E-007	0.00000E+000	-3.02574E-001	0.00000E+000	8	...........	1367.40
	64	13	-3.12573E-001	-6.69674E-007	0.00000E+000	-3.12571E-001	0.00000E+000	8	...........	1367.36
	65	13.2	-3.22563E-001	-6.79516E-007	0.00000E+000	-3.22568E-001	0.00000E+000	8	...........	1367.31
	66	13.4	-3.32548E-001	-6.90620E-007	0.00000E+000	-3.32566E-001	0.00000E+000	8	...........	1367.31
	67	13.6	-3.42562E-001	-6.99825E-007	0.00000E+000	-3.42563E-001	0.00000E+000	8	...........	1367.31
	68	13.8	-3.52572E-001	-7.09767E-007	0.00000E+000	-3.52561E-001	0.00000E+000	8	...........	1367.31
	69	14	-3.62567E-001	-7.18639E-007	0.00000E+000	-3.62558E-001	0.00000E+000	8	...........	1367.31
	70	14.2	-3.72567E-001	-7.25796E-007	0.00000E+000	-3.72556E-001	0.00000E+000	8	...........	1367.31
	71	14.4	-3.82550E-001	-7.32765E-007	0.00000E+000	-3.82553E-001	0.00000E+000	8	...........	1367.31
	72	14.6	-3.92543E-001	-7.39446E-007	0.00000E+000	-3.92551E-001	0.00000E+000	8	...........	1367.31
	73	14.8	-4.02533E-001	-7.44965E-007	0.00000E+000	-4.02548E-001	0.00000E+000	8	...........	1367.31
	74	15	-4.12551E-001	-7.48898E-007	0.00000E+000	-4.12545E-001	0.00000E+000	8	...........	1367.35
	75	15.2	-4.22547E-001	-7.51740E-007	0.00000E+000	-4.22543E-001	0.00000E+000	8	...........	1367.40
	76	15.4	-4.32542E-001	-7.53249E-007	0.00000E+000	-4.32540E-001	0.00000E+000	8	...........	1367.40
	77	15.6	-4.42547E-001	-7.53414E-007	0.00000E+000	-4.42538E-001	0.00000E+000	8	...........	1367.40
	78	15.8	-4.52539E-001	-7.53191E-007	0.00000E+000	-4.52535E-001	0.00000E+000	8	...........	1367.40
	79	16	-4.62554E-001	-7.51943E-007	0.00000E+000	-4.62533E-001	0.00000E+000	8	...........	1367.40
	80	16.2	-4.72525E-001	-7.49537E-007	0.00000E+000	-4.72530E-001	0.00000E+000	8	...........	1367.40
	81	16.4	-4.82531E-001	-7.46886E-007	0.00000E+000	-4.82527E-001	0.00000E+000	8	...........	1367.40
	82	16.6	-4.92587E-001	-7.45658E-007	0.00000E+000	-4.92575E-001	0.00000E+000	8	...........	1367.40
	83	16.8	-5.02587E-001	-7.42624E-007	0.00000E+000	-5.02572E-001	0.00000E+000	8	...........	1367.40
	84	17	-5.12603E-001	-7.39491E-007	0.00000E+000	-5.12570E-001	0.00000E+000	8	...........	1367.36
	85	17.2	-5.22558E-001	-7.36519E-007	0.00000E+000	-5.22567E-001	0.00000E+000	8	...........	1367.31
	86	17.4	-5.32562E-001	-7.34760E-007	0.00000E+000	-5.32565E-001	0.00000E+000	8	...........	1367.31
	87	17.6	-5.42565E-001	-7.32540E-007	0.00000E+000	-5.42562E-001	0.00000E+000	8	...........	1367.31
	88	17.8	-5.52570E-001	-7.30260E-007	0.00000E+000	-5.52560E-001	0.00000E+000	8	...........	1367.31
	89	18	-5.62550E-001	-7.29416E-007	0.00000E+000	-5.62557E-001	0.00000E+000	8	...........	1367.31
	90	18.2	-5.72553E-001	-7.28877E-007	0.00000E+000	-5.72554E-001	0.00000E+000	8	...........	1367.31
	91	18.4	-5.82550E-001	-7.29232E-007	0.00000E+000	-5.82552E-001	0.00000E+000	8	...........	1367.31
	92	18.6	-5.92550E-001	-7.30821E-007	0.00000E+000	-5.92549E-001	0.00000E+000	8	...........	1367.31
	93	18.8	-6.02565E-001	-7.32776E-007	0.00000E+000	-6.02547E-001	0.00000E+000	8	...........	1367.31
	94	19	-5.92575E-001	-4.56915E-007	0.00000E+000	-5.92549E-001	0.00000E+000	8	...........	1367.31
	95	19.2	-5.82572E-001	-4.10768E-007	0.00000E+000	-5.82552E-001	0.00000E+000	8	...........	1367.31
	96	19.4	-5.72572E-001	-3.76947E-007	0.00000E+000	-5.72554E-001	0.00000E+000	8	...........	1367.31
	97	19.6	-5.62569E-001	-3.47262E-007	0.00000E+000	-5.62557E-001	0.00000E+000	8	...........	1367.31
	98	19.8	-5.52594E-001	-3.20855E-007	0.00000E+000	-5.52560E-001	0.00000E+000	8	...........	1367.31
	99	20	-5.42585E-001	-2.97124E-007	0.00000E+000	-5.42562E-001	0.00000E+000	8	...........	1367.35
	100	20.2	-5.32593E-001	-2.75035E-007	0.00000E+000	-5.32565E-001	0.00000E+000	8	...........	1367.40
	101	20.4	-5.22592E-001	-2.54818E-007	0.00000E+000	-5.22567E-001	0.00000E+000	8	...........	1367.40
	102	20.6	-5.12617E-001	-2.34257E-007	0.00000E+000	-5.12570E-001	0.00000E+000	8	...........	1367.40
	103	20.8	-5.02600E-001	-2.14174E-007	0.00000E+000	-5.02572E-001	0.00000E+000	8	...........	1367.40
	104	21	-4.92603E-001	-1.94264E-007	0.00000E+000	-4.92575E-001	0.00000E+000	8	...........	1367.36
	105	21.2	-4.82559E-001	-1.73898E-007	0.00000E+000	-4.82527E-001	0.00000E+000	8	...........	1367.31
	106	21.4	-4.72556E-001	-1.54762E-007	0.00000E+000	-4.72530E-001	0.00000E+000	8	...........	1367.31
	107	21.6	-4.62585E-001	-1.35562E-007	0.00000E+000	-4.62533E-001	0.00000E+000	8	...........	1367.31
	108	21.8	-4.52572E-001	-1.16298E-007	0.00000E+000	-4.52535E-001	0.00000E+000	8	...........	1367.31
	109	22	-4.42564E-001	-9.69446E-008	0.00000E+000	-4.42538E-001	0.00000E+000	8	...........	1367.31
	110	22.2	-4.32557E-001	-7.72470E-008	0.00000E+000	-4.32540E-001	0.00000E+000	8	...........	1367.31
	111	22.4	-4.22552E-001	-5.79339E-008	0.00000E+000	-4.22543E-001	0.00000E+000	8	...........	1367.31
	112	22.6	-4.12581E-001	-3.84463E-008	0.00000E+000	-4.12545E-001	0.00000E+000	8	...........	1367.31
	113	22.8	-4.02570E-001	-1.92389E-008	0.00000E+000	-4.02548E-001	0.00000E+000	8	...........	1367.31
	114	23	-3.92558E-001	4.61762E-010	0.00000E+000	-3.92551E-001	0.00000E+000	8	...........	1367.31
	115	23.2	-3.82571E-001	1.99354E-008	0.00000E+000	-3.82553E-001	0.00000E+000	8	...........	1367.31
	116	23.4	-3.72594E-001	3.92079E-008	0.00000E+000	-3.72556E-001	0.00000E+000	8	...........	1367.31
	117	23.6	-3.62583E-001	5.82430E-008	0.00000E+000	-3.62558E-001	0.00000E+000	8	...........	1367.31
	118	23.8	-3.52591E-001	7.76621E-008	0.00000E+000	-3.52561E-001	0.00000E+000	8	...........	1367.31
	119	24	-3.42577E-001	9.62326E-008	0.00000E+000	-3.42563E-001	0.00000E+000	8	...........	1367.31
	120	24.2	-3.32578E-001	1.14160E-007	0.00000E+000	-3.32566E-001	0.00000E+000	8	...........	1367.31
	121	24.4	-3.22592E-001	1.31954E-007	0.00000E+000	-3.22568E-001	0.00000E+000	8	...........	1367.31
	122	24.6	-3.12592E-001	1.49355E-007	0.00000E+000	-3.12571E-001	0.00000E+000	8	...........	1367.31
	123	24.8	-3.02586E-001	1.65508E-007	0.00000E+000	-3.02574E-001	0.00000E+000	8	...........	1367.31
	124	25	-2.92593E-001	1.82273E-007	0.00000E+000	-2.92576E-001	0.00000E+000	8	...........	1367.31
	125	25.2	-2.82558E-001	2.00079E-007	0.00000E+000	-2.82529E-001	0.00000E+000	8	...........	1367.31
	126	25.4	-2.72546E-001	2.14695E-007	0.00000E+000	-2.72531E-001	0.00000E+000	8	...........	1367.31
	127	25.6	-2.62541E-001	2.29370E-007	0.00000E+000	-2.62534E-001	0.00000E+000	8	...........	1367.31
	128	25.8	-2.52543E-001	2.44359E-007	0.00000E+000	-2.52536E-001	0.00000E+000	8	...........	1367.31
	129	26	-2.42550E-001	2.58471E-007	0.00000E+000	-2.42539E-001	0.00000E+000	8	...........	1367.31
	130	26.2	-2.32574E-001	2.71174E-007	0.00000E+000	-2.32542E-001	0.00000E+000	8	...........	1367.31
	131	26.4	-2.22562E-001	2.83873E-007	0.00000E+000	-2.22544E-001	0.00000E+000	8	...........	1367.31
	132	26.6	-2.12561E-001	2.95406E-007	0.00000E+000	-2.12547E-001	0.00000E+000	8	...........	1367.31
	133	26.8	-2.02571E-001	3.06011E-007	0.00000E+000	-2.02549E-001	0.00000E+000	8	...........	1367.31
	134	27	-1.92586E-001	3.16329E-007	0.00000E+000	-1.92552E-001	0.00000E+000	8	...........	1367.31
	135	27.2	-1.82584E-001	3.26061E-007	0.00000E+000	-1.82554E-001	0.00000E+000	8	...........	1367.31
	136	27.4	-1.72562E-001	3.35317E-007	0.00000E+000	-1.72557E-001	0.00000E+000	8	...........	1367.31
	137	27.6	-1.62584E-001	3.43894E-007	0.00000E+000	-1.62559E-001	0.00000E+000	8	...........	1367.31
	138	27.8	-1.52570E-001	3.50982E-007	0.00000E+000	-1.52562E-001	0.00000E+000	8	...........	1367.31
	139	28	-1.42588E-001	3.57178E-007	0.00000E+000	-1.42565E-001	0.00000E+000	8	...........	1367.31
	140	28.2	-1.32590E-001	3.61997E-007	0.00000E+000	-1.32567E-001	0.00000E+000	8	...........	1367.31
	141	28.4	-1.22576E-001	3.66246E-007	0.00000E+000	-1.22570E-001	0.00000E+000	8	...........	1367.31
	142	28.6	-1.12588E-001	3.69486E-007	0.00000E+000	-1.12572E-001	0.00000E+000	8	...........	1367.31
	143	28.8	-1.02603E-001	3.71198E-007	0.00000E+000	-1.02575E-001	0.00000E+000	8	...........	1367.31
	144	29	-9.26141E-002	3.73648E-007	0.00000E+000	-9.25773E-002	0.00000E+000	8	...........	1367.31
	145	29.2	-8.25410E-002	3.76358E-007	0.00000E+000	-8.25299E-002	0.00000E+000	8	...........	1367.31
	146	29.4	-7.25469E-002	3.76160E-007	0.00000E+000	-7.25325E-002	0.00000E+000	8	...........	1367.31
	147	29.6	-6.25456E-002	3.77850E-007	0.00000E+000	-6.25350E-002	0.00000E+000	8	...........	1367.31
	148	29.8	-5.25723E-002	3.79001E-007	0.00000E+000	-5.25376E-002	0.00000E+000	8	...........	1367.31
	149	30	-4.25679E-002	3.82017E-007	0.00000E+000	-4.25401E-002	0.00000E+000	8	...........	1367.31
	150	30.2	-3.25629E-002	3.85529E-007	0.00000E+000	-3.25427E-002	0.00000E+000	8	...........	1367.31
	151	30.4	-2.25505E-002	3.89289E-007	0.00000E+000	-2.25453E-002	0.00000E+000	8	...........	1367.31
	152	30.6	-1.25635E-002	3.92130E-007	0.00000E+000	-1.25478E-002	0.00000E+000	8	...........	1367.31
	153	30.8	-2.56624E-003	3.94228E-007	0.00000E+000	-2.55038E-003	0.00000E+000	8	...........	1367.31
	154	31	7.44355E-003	3.95065E-007	0.00000E+000	7.44706E-003	0.00000E+000	8	...........	1367.31
	155	31.2	1.74486E-002	3.95104E-007	0.00000E+000	1.74445E-002	0.00000E+000	8	...........	1367.31
	156	31.4	2.74648E-002	3.94514E-007	0.00000E+000	2.74419E-002	0.00000E+000	8	...........	1367.31
	157	31.6	3.74356E-002	3.95778E-007	0.00000E+000	3.74394E-002	0.00000E+000	8	...........	1367.31
	158	31.8	4.74289E-002	3.97671E-007	0.00000E+000	4.74368E-002	0.00000E+000	8	...........	1367.31
	159	32	5.74361E-002	3.99554E-007	0.00000E+000	5.74343E-002	0.00000E+000	8	...........	1367.31
	160	32.2	6.74416E-002	4.01213E-007	0.00000E+000	6.74317E-002	0.00000E+000	8	...........	1367.31
	161	32.4	7.74552E-002	4.03547E-007	0.00000E+000	7.74292E-002	0.00000E+000	8	...........	1367.31
	162	32.6	8.74414E-002	4.05872E-007	0.00000E+000	8.74266E-002	0.00000E+000	8	...........	1367.31
	163	32.8	9.74383E-002	4.07007E-007	0.00000E+000	9.74240E-002	0.00000E+000	8	...........	1367.31
	164	33	1.07487E-001	4.09539E-007	0.00000E+000	1.07471E-001	0.00000E+000	8	...........	1367.31
	165	33.2	1.17496E-001	4.09908E-007	0.00000E+000	1.17469E-001	0.00000E+000	8	...........	1367.31
	166	33.4	1.27501E-001	4.12721E-007	0.00000E+000	1.27466E-001	0.00000E+000	8	...........	1367.31
	167	33.6	1.37476E-001	4.17311E-007	0.00000E+000	1.37464E-001	0.00000E+000	8	...........	1367.31
	168	33.8	1.47469E-001	4.22114E-007	0.00000E+000	1.47461E-001	0.00000E+000	8	...........	1367.31
	169	34	1.57471E-001	4.29410E-007	0.00000E+000	1.57459E-001	0.00000E+000	8	...........	1367.31
	170	34.2	1.67485E-001	4.38076E-007	0.00000E+000	1.67456E-001	0.00000E+000	8	...........	1367.31
	171	34.4	1.77462E-001	4.48427E-007	0.00000E+000	1.77454E-001	0.00000E+000	8	...........	1367.31
	172	34.6	1.87471E-001	4.62275E-007	0.00000E+000	1.87451E-001	0.00000E+000	8	...........	1367.31
	173	34.8	1.97469E-001	4.78970E-007	0.00000E+000	1.97448E-001	0.00000E+000	8	...........	1367.31
	174	35	2.07472E-001	4.98489E-007	0.00000E+000	2.07446E-001	0.00000E+000	8	...........	1367.31
	175	35.2	2.17466E-001	5.21346E-007	0.00000E+000	2.17443E-001	0.00000E+000	8	...........	1367.31
	176	35.4	2.27464E-001	5.46212E-007	0.00000E+000	2.27441E-001	0.00000E+000	8	...........	1367.31
	177	35.6	2.37467E-001	5.69439E-007	0.00000E+000	2.37438E-001	0.00000E+000	8	...........	1367.31
	178	35.8	2.47467E-001	5.86055E-007	0.00000E+000	2.47436E-001	0.00000E+000	8	...........	1367.31
	179	36	2.57469E-001	5.96035E-007	0.00000E+000	2.57433E-001	0.00000E+000	8	...........	1367.31
	180	36.2	2.67432E-001	6.01525E-007	0.00000E+000	2.67431E-001	0.00000E+000	8	...........	1367.31
	181	36.4	2.77445E-001	6.03950E-007	0.00000E+000	2.77428E-001	0.00000E+000	8	...........	1367.31
	182	36.6	2.87459E-001	6.05953E-007	0.00000E+000	2.87425E-001	0.00000E+000	8	...........	1367.31
	183	36.8	2.97454E-001	6.08053E-007	0.00000E+000	2.97423E-001	0.00000E+000	8	...........	1367.31
	184	37	3.07506E-001	6.11165E-007	0.00000E+000	3.07470E-001	0.00000E+000	8	...........	1367.31
	185	37.2	3.17493E-001	6.10996E-007	0.00000E+000	3.17468E-001	0.00000E+000	8	...........	1367.31
	186	37.4	3.27479E-001	6.10768E-007	0.00000E+000	3.27465E-001	0.00000E+000	8	...........	1367.31
	187	37.6	3.37494E-001	6.08603E-007	0.00000E+000	3.37463E-001	0.00000E+000	8	...........	1367.31
	188	37.8	3.47493E-001	6.06370E-007	0.00000E+000	3.47460E-001	0.00000E+000	8	...........	1367.31
	189	38	3.57469E-001	6.03806E-007	0.00000E+000	3.57457E-001	0.00000E+000	8	...........	1367.31
	190	38.2	3.67488E-001	6.01034E-007	0.00000E+000	3.67455E-001	0.00000E+000	8	...........	1367.31
	191	38.4	3.77494E-001	5.99012E-007	0.00000E+000	3.77452E-001	0.00000E+000	8	...........	1367.31
	192	38.6	3.87492E-001	5.98240E-007	0.00000E+000	3.87450E-001	0.00000E+000	8	...........	1367.31
	193	38.8	3.97480E-001	5.96930E-007	0.00000E+000	3.97447E-001	0.00000E+000	8	...........	1367.31
	194	39	4.07479E-001	5.91937E-007	0.00000E+000	4.07445E-001	0.00000E+000	8	...........	1367.31
	195	39.2	4.17505E-001	5.85171E-007	0.00000E+000	4.17442E-001	0.00000E+000	8	...........	1367.31
	196	39.4	4.27484E-001	5.78857E-007	0.00000E+000	4.27440E-001	0.00000E+000	8	...........	1367.31
	197	39.6	4.37473E-001	5.70987E-007	0.00000E+000	4.37437E-001	0.00000E+000	8	...........	1367.31
	198	39.8	4.47472E-001	5.63206E-007	0.00000E+000	4.47434E-001	0.00000E+000	8	...........	1367.31
	199	40	4.57462E-001	5.57587E-007	0.00000E+000	4.57432E-001	0.00000E+000	8	...........	1367.31
	200	40.2	4.67469E-001	5.50705E-007	0.00000E+000	4.67429E-001	0.00000E+000	8	...........	1367.31
	201	40.4	4.77474E-001	5.43596E-007	0.00000E+000	4.77427E-001	0.00000E+000	8	...........	1367.31
	202	40.6	4.87488E-001	5.37300E-007	0.00000E+000	4.87424E-001	0.00000E+000	8	...........	1367.31
	203	40.8	4.97470E-001	5.31728E-007	0.00000E+000	4.97422E-001	0.00000E+000	8	...........	1367.31
	204	41	5.07518E-001	5.28561E-007	0.00000E+000	5.07469E-001	0.00000E+000	8	...........	1367.31
	205	41.2	5.17517E-001	5.21725E-007	0.00000E+000	5.17467E-001	0.00000E+000	8	...........	1367.31
	206	41.4	5.27523E-001	5.18362E-007	0.00000E+000	5.27464E-001	0.00000E+000	8	...........	1367.31
	207	41.6	5.37519E-001	5.14575E-007	0.00000E+000	5.37461E-001	0.00000E+000	8	...........	1367.31
	208	41.8	5.47518E-001	5.11431E-007	0.00000E+000	5.47459E-001	0.00000E+000	8	...........	1367.31
	209	42	5.57512E-001	5.08473E-007	0.00000E+000	5.57456E-001	0.00000E+000	8	...........	1367.31
	210	42.2	5.67527E-001	5.06338E-007	0.00000E+000	5.67454E-001	0.00000E+000	8	...........	1367.31
	211	42.4	5.77526E-001	5.04701E-007	0.00000E+000	5.77451E-001	0.00000E+000	8	...........	1367.31
	212	42.6	5.87498E-001	5.03332E-007	0.00000E+000	5.87449E-001	0.00000E+000	8	...........	1367.31
	213	42.8	5.97505E-001	5.02473E-007	0.00000E+000	5.97446E-001	0.00000E+000	8	...........	1367.31
	214	43	6.07512E-001	5.02229E-007	0.00000E+000	6.07443E-001	0.00000E+000	8	...........	1367.31
	215	43.2	6.17523E-001	5.01984E-007	0.00000E+000	6.17441E-001	0.00000E+000	8	...........	1367.31
	216	43.4	6.27506E-001	5.03190E-007	0.00000E+000	6.27438E-001	0.00000E+000	8	...........	1367.31
	217	43.6	6.37489E-001	5.03334E-007	0.00000E+000	6.37436E-001	0.00000E+000	8	...........	1367.31
	218	43.8	6.47504E-001	5.05077E-007	0.00000E+000	6.47433E-001	0.00000E+000	8	...........	1367.31
	219	44	6.57499E-001	5.06960E-007	0.00000E+000	6.57431E-001	0.00000E+000	8	...........	1367.31
	220	44.2	6.67499E-001	5.08442E-007	0.00000E+000	6.67428E-001	0.00000E+000	8	...........	1367.31
	221	44.4	6.77490E-001	5.09713E-007	0.00000E+000	6.77426E-001	0.00000E+000	8	...........	1367.31
	222	44.6	6.87486E-001	5.13190E-007	0.00000E+000	6.87423E-001	0.00000E+000	8	...........	1367.31
	223	44.8	6.97542E-001	5.19374E-007	0.00000E+000	6.97470E-001	0.00000E+000	8	...........	1367.31
	224	45	7.07541E-001	5.25866E-007	0.00000E+000	7.07468E-001	0.00000E+000	8	...........	1367.31
	225	45.2	7.17523E-001	5.37626E-007	0.00000E+000	7.17465E-001	0.00000E+000	8	...........	1367.31
	226	45.4	7.27529E-001	5.55728E-007	0.00000E+000	7.27463E-001	0.00000E+000	8	...........	1367.31
	227	45.6	7.37535E-001	5.82267E-007	0.00000E+000	7.37460E-001	0.00000E+000	8	...........	1367.31
	228	45.8	7.47527E-001	6.20345E-007	0.00000E+000	7.47458E-001	0.00000E+000	8	...........	1367.31
	229	46	7.57511E-001	6.76926E-007	0.00000E+000	7.57455E-001	0.00000E+000	8	...........	1367.31
	230	46.2	7.67496E-001	7.57403E-007	0.00000E+000	7.67453E-001	0.00000E+000	8	...........	1367.31
	231	46.4	7.77527E-001	8.71406E-007	0.00000E+000	7.77450E-001	0.00000E+000	8	...........	1367.31
	232	46.6	7.87531E-001	1.03287E-006	0.00000E+000	7.87447E-001	0.00000E+000	8	...........	1367.31
	233	46.8	7.97506E-001	1.26642E-006	0.00000E+000	7.97445E-001	0.00000E+000	8	...........	1367.31
CURVE2	TABLE
	Pt	T	Vf	Im	Vu	Sig	Ach	IERange	Over	Temp
	#	s	V vs. Ref.	A	V	V	V	#	bits	deg C
	234	47	7.90075E-001	4.22017E-007	0.00000E+000	7.89997E-001	0.00000E+000	8	...........	1367.31
	235	47.2	7.80071E-001	7.08071E-008	0.00000E+000	7.79999E-001	0.00000E+000	8	...........	1367.31
	236	47.4	7.70111E-001	-7.44514E-008	0.00000E+000	7.70002E-001	0.00000E+000	8	...........	1367.31
	237	47.6	7.60097E-001	-1.54743E-007	0.00000E+000	7.60004E-001	0.00000E+000	8	...........	1367.31
	238	47.8	7.50103E-001	-2.03333E-007	0.00000E+000	7.50007E-001	0.00000E+000	8	...........	1367.31
	239	48	7.40098E-001	-2.36878E-007	0.00000E+000	7.40010E-001	0.00000E+000	8	...........	1367.31
	240	48.2	7.30123E-001	-2.60042E-007	0.00000E+000	7.30012E-001	0.00000E+000	8	...........	1367.31
	241	48.4	7.20115E-001	-2.79128E-007	0.00000E+000	7.20015E-001	0.00000E+000	8	...........	1367.31
	242	48.6	7.10131E-001	-2.94344E-007	0.00000E+000	7.10017E-001	0.00000E+000	8	...........	1367.31
	243	48.8	7.00098E-001	-3.09479E-007	0.00000E+000	7.00020E-001	0.00000E+000	8	...........	1367.31
	244	49	6.90105E-001	-3.21598E-007	0.00000E+000	6.90022E-001	0.00000E+000	8	...........	1367.31
	245	49.2	6.80135E-001	-3.33212E-007	0.00000E+000	6.80025E-001	0.00000E+000	8	...........	1367.31
	246	49.4	6.70065E-001	-3.45262E-007	0.00000E+000	6.69977E-001	0.00000E+000	8	...........	1367.31
	247	49.6	6.60070E-001	-3.55547E-007	0.00000E+000	6.59980E-001	0.00000E+000	8	...........	1367.31
	248	49.8	6.50070E-001	-3.65804E-007	0.00000E+000	6.49983E-001	0.00000E+000	8	...........	1367.31
	249	50	6.40068E-001	-3.74962E-007	0.00000E+000	6.39985E-001	0.00000E+000	8	...........	1367.31
	250	50.2	6.30080E-001	-3.81855E-007	0.00000E+000	6.29988E-001	0.00000E+000	8	...........	1367.31
	251	50.4	6.20076E-001	-3.87946E-007	0.00000E+000	6.19990E-001	0.00000E+000	8	...........	1367.31
	252	50.6	6.10088E-001	-3.92441E-007	0.00000E+000	6.09993E-001	0.00000E+000	8	...........	1367.31
	253	50.8	6.00072E-001	-3.97537E-007	0.00000E+000	5.99995E-001	0.00000E+000	8	...........	1367.31
	254	51	5.90095E-001	-4.02003E-007	0.00000E+000	5.89998E-001	0.00000E+000	8	...........	1367.31
	255	51.2	5.80091E-001	-4.07334E-007	0.00000E+000	5.80001E-001	0.00000E+000	8	...........	1367.31
	256	51.4	5.70083E-001	-4.12734E-007	0.00000E+000	5.70003E-001	0.00000E+000	8	...........	1367.31
	257	51.6	5.60071E-001	-4.18129E-007	0.00000E+000	5.60006E-001	0.00000E+000	8	...........	1367.31
	258	51.8	5.50101E-001	-4.23748E-007	0.00000E+000	5.50008E-001	0.00000E+000	8	...........	1367.31
	259	52	5.40088E-001	-4.29452E-007	0.00000E+000	5.40011E-001	0.00000E+000	8	...........	1367.31
	260	52.2	5.30088E-001	-4.34783E-007	0.00000E+000	5.30013E-001	0.00000E+000	8	...........	1367.31
	261	52.4	5.20092E-001	-4.41187E-007	0.00000E+000	5.20016E-001	0.00000E+000	8	...........	1367.31
	262	52.6	5.10081E-001	-4.47742E-007	0.00000E+000	5.10018E-001	0.00000E+000	8	...........	1367.31
	263	52.8	5.00109E-001	-4.53965E-007	0.00000E+000	5.00021E-001	0.00000E+000	8	...........	1367.31
	264	53	4.90110E-001	-4.61298E-007	0.00000E+000	4.90024E-001	0.00000E+000	8	...........	1367.31
	265	53.2	4.80058E-001	-4.71082E-007	0.00000E+000	4.79976E-001	0.00000E+000	8	...........	1367.31
	266	53.4	4.70050E-001	-4.77886E-007	0.00000E+000	4.69979E-001	0.00000E+000	8	...........	1367.31
	267	53.6	4.60051E-001	-4.85888E-007	0.00000E+000	4.59981E-001	0.00000E+000	8	...........	1367.31
	268	53.8	4.50055E-001	-4.93695E-007	0.00000E+000	4.49984E-001	0.00000E+000	8	...........	1367.31
	269	54	4.40061E-001	-5.01445E-007	0.00000E+000	4.39986E-001	0.00000E+000	8	...........	1367.31
	270	54.2	4.30058E-001	-5.09385E-007	0.00000E+000	4.29989E-001	0.00000E+000	8	...........	1367.31
	271	54.4	4.20049E-001	-5.16606E-007	0.00000E+000	4.19991E-001	0.00000E+000	8	...........	1367.31
	272	54.6	4.10061E-001	-5.22608E-007	0.00000E+000	4.09994E-001	0.00000E+000	8	...........	1367.31
	273	54.8	4.00053E-001	-5.28475E-007	0.00000E+000	3.99997E-001	0.00000E+000	8	...........	1367.31
	274	55	3.90054E-001	-5.33245E-007	0.00000E+000	3.89999E-001	0.00000E+000	8	...........	1367.31
	275	55.2	3.80053E-001	-5.37439E-007	0.00000E+000	3.80002E-001	0.00000E+000	8	...........	1367.31
	276	55.4	3.70056E-001	-5.39963E-007	0.00000E+000	3.70004E-001	0.00000E+000	8	...........	1367.31
	277	55.6	3.60067E-001	-5.38703E-007	0.00000E+000	3.60007E-001	0.00000E+000	8	...........	1367.31
	278	55.8	3.50070E-001	-5.36461E-007	0.00000E+000	3.50009E-001	0.00000E+000	8	...........	1367.31
	279	56	3.40056E-001	-5.34666E-007	0.00000E+000	3.40012E-001	0.00000E+000	8	...........	1367.31
	280	56.2	3.30059E-001	-5.33705E-007	0.00000E+000	3.30014E-001	0.00000E+000	8	...........	1367.31
	281	56.4	3.20077E-001	-5.33719E-007	0.00000E+000	3.20017E-001	0.00000E+000	8	...........	1367.31
	282	56.6	3.10083E-001	-5.33052E-007	0.00000E+000	3.10020E-001	0.00000E+000	8	...........	1367.31
	283	56.8	3.00079E-001	-5.31952E-007	0.00000E+000	3.00022E-001	0.00000E+000	8	...........	1367.31
	284	57	2.90072E-001	-5.29766E-007	0.00000E+000	2.90025E-001	0.00000E+000	8	...........	1367.31
	285	57.2	2.80021E-001	-5.28736E-007	0.00000E+000	2.79977E-001	0.00000E+000	8	...........	1367.31
	286	57.4	2.70035E-001	-5.23216E-007	0.00000E+000	2.69980E-001	0.00000E+000	8	...........	1367.31
	287	57.6	2.60038E-001	-5.19179E-007	0.00000E+000	2.59982E-001	0.00000E+000	8	...........	1367.31
	288	57.8	2.50034E-001	-5.14587E-007	0.00000E+000	2.49985E-001	0.00000E+000	8	...........	1367.31
	289	58	2.40016E-001	-5.12242E-007	0.00000E+000	2.39988E-001	0.00000E+000	8	...........	1367.31
	290	58.2	2.30039E-001	-5.11546E-007	0.00000E+000	2.29990E-001	0.00000E+000	8	...........	1367.31
	291	58.4	2.20020E-001	-5.06756E-007	0.00000E+000	2.19993E-001	0.00000E+000	8	...........	1367.31
	292	58.6	2.10034E-001	-4.95780E-007	0.00000E+000	2.09995E-001	0.00000E+000	8	...........	1367.31
	293	58.8	2.00033E-001	-4.79375E-007	0.00000E+000	1.99998E-001	0.00000E+000	8	...........	1367.31
	294	59	1.90046E-001	-4.62429E-007	0.00000E+000	1.90000E-001	0.00000E+000	8	...........	1367.31
	295	59.2	1.80051E-001	-4.45887E-007	0.00000E+000	1.80003E-001	0.00000E+000	8	...........	1367.31
	296	59.4	1.70052E-001	-4.31389E-007	0.00000E+000	1.70005E-001	0.00000E+000	8	...........	1367.31
	297	59.6	1.60050E-001	-4.18235E-007	0.00000E+000	1.60008E-001	0.00000E+000	8	...........	1367.31
	298	59.8	1.50036E-001	-4.06678E-007	0.00000E+000	1.50011E-001	0.00000E+000	8	...........	1367.31
	299	60	1.40040E-001	-3.97018E-007	0.00000E+000	1.40013E-001	0.00000E+000	8	...........	1367.31
	300	60.2	1.30072E-001	-3.89346E-007	0.00000E+000	1.30016E-001	0.00000E+000	8	...........	1367.31
	301	60.4	1.20069E-001	-3.82345E-007	0.00000E+000	1.20018E-001	0.00000E+000	8	...........	1367.31
	302	60.6	1.10071E-001	-3.77208E-007	0.00000E+000	1.10021E-001	0.00000E+000	8	...........	1367.31
	303	60.8	1.00039E-001	-3.72591E-007	0.00000E+000	1.00023E-001	0.00000E+000	8	...........	1367.31
	304	61	9.00649E-002	-3.68580E-007	0.00000E+000	9.00259E-002	0.00000E+000	8	...........	1367.31
	305	61.2	8.00159E-002	-3.67394E-007	0.00000E+000	7.99785E-002	0.00000E+000	8	...........	1367.31
	306	61.4	7.00226E-002	-3.63723E-007	0.00000E+000	6.99811E-002	0.00000E+000	8	...........	1367.31
	307	61.6	6.00041E-002	-3.61839E-007	0.00000E+000	5.99836E-002	0.00000E+000	8	...........	1367.31
	308	61.8	5.00212E-002	-3.60387E-007	0.00000E+000	4.99862E-002	0.00000E+000	8	...........	1367.31
	309	62	4.00325E-002	-3.59777E-007	0.00000E+000	3.99887E-002	0.00000E+000	8	...........	1367.31
	310	62.2	3.00318E-002	-3.59316E-007	0.00000E+000	2.99913E-002	0.00000E+000	8	...........	1367.31
	311	62.4	2.00150E-002	-3.59350E-007	0.00000E+000	1.99939E-002	0.00000E+000	8	...........	1367.31
	312	62.6	1.00197E-002	-3.60256E-007	0.00000E+000	9.99641E-003	0.00000E+000	8	...........	1367.31
	313	62.8	2.69556E-005	-3.61988E-007	0.00000E+000	-1.02818E-006	0.00000E+000	8	...........	1367.31
	314	63	-1.00078E-002	-3.64045E-007	0.00000E+000	-9.99847E-003	0.00000E+000	8	...........	1367.31
	315	63.2	-1.99994E-002	-3.67593E-007	0.00000E+000	-1.99959E-002	0.00000E+000	8	...........	1367.31
	316	63.4	-3.00021E-002	-3.70250E-007	0.00000E+000	-2.99934E-002	0.00000E+000	8	...........	1367.31
	317	63.6	-3.99889E-002	-3.72811E-007	0.00000E+000	-3.99908E-002	0.00000E+000	8	...........	1367.31
	318	63.8	-4.99660E-002	-3.75215E-007	0.00000E+000	-4.99882E-002	0.00000E+000	8	...........	1367.31
	319	64	-5.99729E-002	-3.78570E-007	0.00000E+000	-5.99857E-002	0.00000E+000	8	...........	1367.31
	320	64.2	-6.99648E-002	-3.84182E-007	0.00000E+000	-6.99831E-002	0.00000E+000	8	...........	1367.31
	321	64.4	-7.99829E-002	-3.91693E-007	0.00000E+000	-7.99806E-002	0.00000E+000	8	...........	1367.31
	322	64.6	-8.99749E-002	-4.01200E-007	0.00000E+000	-8.99780E-002	0.00000E+000	8	...........	1367.31
	323	64.8	-9.99661E-002	-4.12009E-007	0.00000E+000	-9.99754E-002	0.00000E+000	8	...........	1367.31
	324	65	-1.10018E-001	-4.26031E-007	0.00000E+000	-1.10023E-001	0.00000E+000	8	...........	1367.31
	325	65.2	-1.20013E-001	-4.39388E-007	0.00000E+000	-1.20020E-001	0.00000E+000	8	...........	1367.31
	326	65.4	-1.30023E-001	-4.54249E-007	0.00000E+000	-1.30018E-001	0.00000E+000	8	...........	1367.31
	327	65.6	-1.40002E-001	-4.68275E-007	0.00000E+000	-1.40015E-001	0.00000E+000	8	...........	1367.31
	328	65.8	-1.50013E-001	-4.81963E-007	0.00000E+000	-1.50013E-001	0.00000E+000	8	...........	1367.31
	329	66	-1.60002E-001	-4.94506E-007	0.00000E+000	-1.60010E-001	0.00000E+000	8	...........	1367.31
	330	66.2	-1.70005E-001	-5.06044E-007	0.00000E+000	-1.70007E-001	0.00000E+000	8	...........	1367.31
	331	66.4	-1.80034E-001	-5.15348E-007	0.00000E+000	-1.80005E-001	0.00000E+000	8	...........	1367.31
	332	66.6	-1.89997E-001	-5.22599E-007	0.00000E+000	-1.90002E-001	0.00000E+000	8	...........	1367.31
	333	66.8	-1.99988E-001	-5.29349E-007	0.00000E+000	-2.00000E-001	0.00000E+000	8	...........	1367.31
	334	67	-2.09980E-001	-5.35058E-007	0.00000E+000	-2.09997E-001	0.00000E+000	8	...........	1367.31
	335	67.2	-2.19997E-001	-5.40423E-007	0.00000E+000	-2.19995E-001	0.00000E+000	8	...........	1367.31
	336	67.4	-2.29975E-001	-5.45886E-007	0.00000E+000	-2.29992E-001	0.00000E+000	8	...........	1367.31
	337	67.6	-2.39988E-001	-5.51651E-007	0.00000E+000	-2.39990E-001	0.00000E+000	8	...........	1367.31
	338	67.8	-2.49976E-001	-5.57360E-007	0.00000E+000	-2.49987E-001	0.00000E+000	8	...........	1367.31
	339	68	-2.59997E-001	-5.63706E-007	0.00000E+000	-2.59984E-001	0.00000E+000	8	...........	1367.31
	340	68.2	-2.69979E-001	-5.69940E-007	0.00000E+000	-2.69982E-001	0.00000E+000	8	...........	1367.31
[...]
	640	128.2	-4.69997E-001	-5.99818E-007	0.00000E+000	-4.69981E-001	0.00000E+000	8	...........	1367.31
	641	128.4	-4.80004E-001	-5.96904E-007	0.00000E+000	-4.79978E-001	0.00000E+000	8	...........	1367.31
	642	128.6	-4.89998E-001	-5.93534E-007	0.00000E+000	-4.89976E-001	0.00000E+000	8	...........	1367.31
	643	128.8	-4.99992E-001	-5.90356E-007	0.00000E+000	-4.99973E-001	0.00000E+000	8	...........	1367.31
	644	129	-5.10016E-001	-5.88463E-007	0.00000E+000	-5.10020E-001	0.00000E+000	8	...........	1367.31
	645	129.2	-5.20004E-001	-5.84691E-007	0.00000E+000	-5.20018E-001	0.00000E+000	8	...........	1367.31
	646	129.4	-5.30001E-001	-5.81843E-007	0.00000E+000	-5.30015E-001	0.00000E+000	8	...........	1367.31
	647	129.6	-5.40022E-001	-5.80305E-007	0.00000E+000	-5.40013E-001	0.00000E+000	8	...........	1367.31
	648	129.8	-5.50012E-001	-5.78592E-007	0.00000E+000	-5.50010E-001	0.00000E+000	8	...........	1367.31
	649	130	-5.60013E-001	-5.77081E-007	0.00000E+000	-5.60008E-001	0.00000E+000	8	...........	1367.31
	650	130.2	-5.70008E-001	-5.77370E-007	0.00000E+000	-5.70005E-001	0.00000E+000	8	...........	1367.31
	651	130.4	-5.80020E-001	-5.77348E-007	0.00000E+000	-5.80003E-001	0.00000E+000	8	...........	1367.31
	652	130.6	-5.90016E-001	-5.77843E-007	0.00000E+000	-5.90000E-001	0.00000E+000	8	...........	1367.31
	653	130.8	-6.00001E-001	-5.80456E-007	0.00000E+000	-5.99997E-001	0.00000E+000	8	...........	1367.31
	654	131	-5.90032E-001	-3.17849E-007	0.00000E+000	-5.90000E-001	0.00000E+000	8	...........	1367.31
	655	131.2	-5.80037E-001	-2.78790E-007	0.00000E+000	-5.80003E-001	0.00000E+000	8	...........	1367.31
	656	131.4	-5.70032E-001	-2.49281E-007	0.00000E+000	-5.70005E-001	0.00000E+000	8	...........	1367.31
	657	131.6	-5.60026E-001	-2.25175E-007	0.00000E+000	-5.60008E-001	0.00000E+000	8	...........	1367.31
	658	131.8	-5.50030E-001	-2.03476E-007	0.00000E+000	-5.50010E-001	0.00000E+000	8	...........	1367.31
	659	132	-5.40051E-001	-1.84047E-007	0.00000E+000	-5.40013E-001	0.00000E+000	8	...........	1367.27
	660	132.2	-5.30038E-001	-1.65433E-007	0.00000E+000	-5.30015E-001	0.00000E+000	8	...........	1367.22
	661	132.4	-5.20030E-001	-1.48371E-007	0.00000E+000	-5.20018E-001	0.00000E+000	8	...........	1367.22
	662	132.6	-5.10049E-001	-1.32015E-007	0.00000E+000	-5.10020E-001	0.00000E+000	8	...........	1367.22
	663	132.8	-5.00027E-001	-1.14910E-007	0.00000E+000	-4.99973E-001	0.00000E+000	8	...........	1367.22
	664	133	-4.90017E-001	-9.92505E-008	0.00000E+000	-4.89976E-001	0.00000E+000	8	...........	1367.22
	665	133.2	-4.80006E-001	-8.29664E-008	0.00000E+000	-4.79978E-001	0.00000E+000	8	...........	1367.22
	666	133.4	-4.70008E-001	-6.71031E-008	0.00000E+000	-4.69981E-001	0.00000E+000	8	...........	1367.22
	667	133.6	-4.60018E-001	-5.09665E-008	0.00000E+000	-4.59983E-001	0.00000E+000	8	...........	1367.22
	668	133.8	-4.50020E-001	-3.48032E-008	0.00000E+000	-4.49986E-001	0.00000E+000	8	...........	1367.22
	669	134	-4.40028E-001	-1.91441E-008	0.00000E+000	-4.39988E-001	0.00000E+000	8	...........	1367.22
	670	134.2	-4.30020E-001	-2.80824E-009	0.00000E+000	-4.29991E-001	0.00000E+000	8	...........	1367.22
	671	134.4	-4.20024E-001	1.34697E-008	0.00000E+000	-4.19994E-001	0.00000E+000	8	...........	1367.22
	672	134.6	-4.10015E-001	2.89760E-008	0.00000E+000	-4.09996E-001	0.00000E+000	8	...........	1367.22
	673	134.8	-4.00020E-001	4.50002E-008	0.00000E+000	-3.99999E-001	0.00000E+000	8	...........	1367.22
	674	135	-3.90025E-001	6.08310E-008	0.00000E+000	-3.90001E-001	0.00000E+000	8	...........	1367.27
	675	135.2	-3.80025E-001	7.64748E-008	0.00000E+000	-3.80004E-001	0.00000E+000	8	...........	1367.31
	676	135.4	-3.70016E-001	9.22530E-008	0.00000E+000	-3.70006E-001	0.00000E+000	8	...........	1367.31
	677	135.6	-3.60044E-001	1.08437E-007	0.00000E+000	-3.60009E-001	0.00000E+000	8	...........	1367.31
	678	135.8	-3.50033E-001	1.24038E-007	0.00000E+000	-3.50011E-001	0.00000E+000	8	...........	1367.31
	679	136	-3.40039E-001	1.39156E-007	0.00000E+000	-3.40014E-001	0.00000E+000	8	...........	1367.31
	680	136.2	-3.30017E-001	1.54120E-007	0.00000E+000	-3.30017E-001	0.00000E+000	8	...........	1367.31
	681	136.4	-3.20023E-001	1.68020E-007	0.00000E+000	-3.20019E-001	0.00000E+000	8	...........	1367.31
	682	136.6	-3.10059E-001	1.82004E-007	0.00000E+000	-3.10022E-001	0.00000E+000	8	...........	1367.31
	683	136.8	-3.00004E-001	1.96823E-007	0.00000E+000	-2.99974E-001	0.00000E+000	8	...........	1367.31
	684	137	-2.89989E-001	2.09438E-007	0.00000E+000	-2.89977E-001	0.00000E+000	8	...........	1367.31
	685	137.2	-2.79990E-001	2.22855E-007	0.00000E+000	-2.79979E-001	0.00000E+000	8	...........	1367.31
	686	137.4	-2.70009E-001	2.34586E-007	0.00000E+000	-2.69982E-001	0.00000E+000	8	...........	1367.31
	687	137.6	-2.60015E-001	2.46870E-007	0.00000E+000	-2.59984E-001	0.00000E+000	8	...........	1367.31
	688	137.8	-2.50001E-001	2.57709E-007	0.00000E+000	-2.49987E-001	0.00000E+000	8	...........	1367.31
	689	138	-2.40015E-001	2.68527E-007	0.00000E+000	-2.39990E-001	0.00000E+000	8	...........	1367.31
	690	138.2	-2.30013E-001	2.78596E-007	0.00000E+000	-2.29992E-001	0.00000E+000	8	...........	1367.31
	691	138.4	-2.20019E-001	2.88062E-007	0.00000E+000	-2.19995E-001	0.00000E+000	8	...........	1367.31
	692	138.6	-2.10016E-001	2.97128E-007	0.00000E+000	-2.09997E-001	0.00000E+000	8	...........	1367.31
	693	138.8	-2.00015E-001	3.05728E-007	0.00000E+000	-2.00000E-001	0.00000E+000	8	...........	1367.31
	694	139	-1.90018E-001	3.13668E-007	0.00000E+000	-1.90002E-001	0.00000E+000	8	...........	1367.27
	695	139.2	-1.80051E-001	3.20664E-007	0.00000E+000	-1.80005E-001	0.00000E+000	8	...........	1367.22
	696	139.4	-1.70022E-001	3.27859E-007	0.00000E+000	-1.70007E-001	0.00000E+000	8	...........	1367.22
	697	139.6	-1.60023E-001	3.34682E-007	0.00000E+000	-1.60010E-001	0.00000E+000	8	...........	1367.22
	698	139.8	-1.50029E-001	3.39748E-007	0.00000E+000	-1.50013E-001	0.00000E+000	8	...........	1367.22
	699	140	-1.40028E-001	3.44427E-007	0.00000E+000	-1.40015E-001	0.00000E+000	8	...........	1367.22
	700	140.2	-1.30039E-001	3.47631E-007	0.00000E+000	-1.30018E-001	0.00000E+000	8	...........	1367.22
	701	140.4	-1.20030E-001	3.50334E-007	0.00000E+000	-1.20020E-001	0.00000E+000	8	...........	1367.22
	702	140.6	-1.10031E-001	3.51718E-007	0.00000E+000	-1.10023E-001	0.00000E+000	8	...........	1367.22
	703	140.8	-9.99946E-002	3.54160E-007	0.00000E+000	-9.99754E-002	0.00000E+000	8	...........	1367.22
	704	141	-8.99952E-002	3.53391E-007	0.00000E+000	-8.99780E-002	0.00000E+000	8	...........	1367.27
	705	141.2	-7.99995E-002	3.54220E-007	0.00000E+000	-7.99806E-002	0.00000E+000	8	...........	1367.31
	706	141.4	-6.99938E-002	3.54796E-007	0.00000E+000	-6.99831E-002	0.00000E+000	8	...........	1367.31
	707	141.6	-6.00112E-002	3.55628E-007	0.00000E+000	-5.99857E-002	0.00000E+000	8	...........	1367.31
	708	141.8	-4.99943E-002	3.56719E-007	0.00000E+000	-4.99882E-002	0.00000E+000	8	...........	1367.31
	709	142	-4.00212E-002	3.59623E-007	0.00000E+000	-3.99908E-002	0.00000E+000	8	...........	1367.27
	710	142.2	-3.00257E-002	3.62447E-007	0.00000E+000	-2.99934E-002	0.00000E+000	8	...........	1367.22
	711	142.4	-2.00197E-002	3.65667E-007	0.00000E+000	-1.99959E-002	0.00000E+000	8	...........	1367.22
	712	142.6	-1.00160E-002	3.69208E-007	0.00000E+000	-9.99847E-003	0.00000E+000	8	...........	1367.22
	713	142.8	4.07884E-006	3.70943E-007	0.00000E+000	-1.02818E-006	0.00000E+000	8	...........	1367.22
	714	143	9.99358E-003	3.71845E-007	0.00000E+000	9.99641E-003	0.00000E+000	8	...........	1367.27
	715	143.2	1.99937E-002	3.72060E-007	0.00000E+000	1.99939E-002	0.00000E+000	8	...........	1367.31
	716	143.4	3.00125E-002	3.72049E-007	0.00000E+000	2.99913E-002	0.00000E+000	8	...........	1367.31
	717	143.6	4.00011E-002	3.72653E-007	0.00000E+000	3.99887E-002	0.00000E+000	8	...........	1367.31
	718	143.8	4.99924E-002	3.73462E-007	0.00000E+000	4.99862E-002	0.00000E+000	8	...........	1367.31
	719	144	5.99677E-002	3.75022E-007	0.00000E+000	5.99836E-002	0.00000E+000	8	...........	1367.27
	720	144.2	7.00020E-002	3.77100E-007	0.00000E+000	6.99811E-002	0.00000E+000	8	...........	1367.22
	721	144.4	7.99978E-002	3.79417E-007	0.00000E+000	7.99785E-002	0.00000E+000	8	...........	1367.22
	722	144.6	9.00469E-002	3.82497E-007	0.00000E+000	9.00259E-002	0.00000E+000	8	...........	1367.22
	723	144.8	1.00022E-001	3.82770E-007	0.00000E+000	1.00023E-001	0.00000E+000	8	...........	1367.22
	724	145	1.10036E-001	3.83977E-007	0.00000E+000	1.10021E-001	0.00000E+000	8	...........	1367.22
	725	145.2	1.20038E-001	3.85289E-007	0.00000E+000	1.20018E-001	0.00000E+000	8	...........	1367.22
	726	145.4	1.30045E-001	3.88520E-007	0.00000E+000	1.30016E-001	0.00000E+000	8	...........	1367.22
	727	145.6	1.40027E-001	3.92379E-007	0.00000E+000	1.40013E-001	0.00000E+000	8	...........	1367.22
	728	145.8	1.50035E-001	3.98001E-007	0.00000E+000	1.50011E-001	0.00000E+000	8	...........	1367.22
	729	146	1.60019E-001	4.05212E-007	0.00000E+000	1.60008E-001	0.00000E+000	8	...........	1367.22
	730	146.2	1.70010E-001	4.14281E-007	0.00000E+000	1.70005E-001	0.00000E+000	8	...........	1367.22
	731	146.4	1.80018E-001	4.25315E-007	0.00000E+000	1.80003E-001	0.00000E+000	8	...........	1367.22
	732	146.6	1.90028E-001	4.39290E-007	0.00000E+000	1.90000E-001	0.00000E+000	8	...........	1367.22
	733	146.8	2.00019E-001	4.56637E-007	0.00000E+000	1.99998E-001	0.00000E+000	8	...........	1367.22
	734	147	2.10009E-001	4.77966E-007	0.00000E+000	2.09995E-001	0.00000E+000	8	...........	1367.22
	735	147.2	2.19999E-001	5.02140E-007	0.00000E+000	2.19993E-001	0.00000E+000	8	...........	1367.22
	736	147.4	2.30022E-001	5.28928E-007	0.00000E+000	2.29990E-001	0.00000E+000	8	...........	1367.22
	737	147.6	2.40008E-001	5.55357E-007	0.00000E+000	2.39988E-001	0.00000E+000	8	...........	1367.22
	738	147.8	2.50003E-001	5.74148E-007	0.00000E+000	2.49985E-001	0.00000E+000	8	...........	1367.22
	739	148	2.60018E-001	5.83611E-007	0.00000E+000	2.59982E-001	0.00000E+000	8	...........	1367.27
	740	148.2	2.70014E-001	5.89379E-007	0.00000E+000	2.69980E-001	0.00000E+000	8	...........	1367.31
	741	148.4	2.80006E-001	5.90480E-007	0.00000E+000	2.79977E-001	0.00000E+000	8	...........	1367.31
	742	148.6	2.90049E-001	5.93259E-007	0.00000E+000	2.90025E-001	0.00000E+000	8	...........	1367.31
	743	148.8	3.00047E-001	5.91849E-007	0.00000E+000	3.00022E-001	0.00000E+000	8	...........	1367.31
	744	149	3.10056E-001	5.93068E-007	0.00000E+000	3.10020E-001	0.00000E+000	8	...........	1367.31
	745	149.2	3.20059E-001	5.93786E-007	0.00000E+000	3.20017E-001	0.00000E+000	8	...........	1367.31
	746	149.4	3.30033E-001	5.93512E-007	0.00000E+000	3.30014E-001	0.00000E+000	8	...........	1367.31
	747	149.6	3.40035E-001	5.92271E-007	0.00000E+000	3.40012E-001	0.00000E+000	8	...........	1367.31
	748	149.8	3.50048E-001	5.89836E-007	0.00000E+000	3.50009E-001	0.00000E+000	8	...........	1367.31
	749	150	3.60038E-001	5.87418E-007	0.00000E+000	3.60007E-001	0.00000E+000	8	...........	1367.27
	750	150.2	3.70033E-001	5.85288E-007	0.00000E+000	3.70004E-001	0.00000E+000	8	...........	1367.22
	751	150.4	3.80025E-001	5.84505E-007	0.00000E+000	3.80002E-001	0.00000E+000	8	...........	1367.22
	752	150.6	3.90038E-001	5.84713E-007	0.00000E+000	3.89999E-001	0.00000E+000	8	...........	1367.22
	753	150.8	4.00032E-001	5.83793E-007	0.00000E+000	3.99997E-001	0.00000E+000	8	...........	1367.22
	754	151	4.10037E-001	5.79140E-007	0.00000E+000	4.09994E-001	0.00000E+000	8	...........	1367.22
	755	151.2	4.20031E-001	5.72241E-007	0.00000E+000	4.19991E-001	0.00000E+000	8	...........	1367.22
	756	151.4	4.30037E-001	5.64001E-007	0.00000E+000	4.29989E-001	0.00000E+000	8	...........	1367.22
	757	151.6	4.40022E-001	5.55915E-007	0.00000E+000	4.39986E-001	0.00000E+000	8	...........	1367.22
	758	151.8	4.50026E-001	5.49087E-007	0.00000E+000	4.49984E-001	0.00000E+000	8	...........	1367.22
	759	152	4.60017E-001	5.42173E-007	0.00000E+000	4.59981E-001	0.00000E+000	8	...........	1367.27
	760	152.2	4.70024E-001	5.34179E-007	0.00000E+000	4.69979E-001	0.00000E+000	8	...........	1367.31
	761	152.4	4.80037E-001	5.26727E-007	0.00000E+000	4.79976E-001	0.00000E+000	8	...........	1367.31
	762	152.6	4.90091E-001	5.22213E-007	0.00000E+000	4.90024E-001	0.00000E+000	8	...........	1367.31
	763	152.8	5.00084E-001	5.14030E-007	0.00000E+000	5.00021E-001	0.00000E+000	8	...........	1367.31
	764	153	5.10045E-001	5.07422E-007	0.00000E+000	5.10018E-001	0.00000E+000	8	...........	1367.31
	765	153.2	5.20057E-001	5.02297E-007	0.00000E+000	5.20016E-001	0.00000E+000	8	...........	1367.31
	766	153.4	5.30069E-001	4.96247E-007	0.00000E+000	5.30013E-001	0.00000E+000	8	...........	1367.31
	767	153.6	5.40066E-001	4.91541E-007	0.00000E+000	5.40011E-001	0.00000E+000	8	...........	1367.31
	768	153.8	5.50065E-001	4.87618E-007	0.00000E+000	5.50008E-001	0.00000E+000	8	...........	1367.31
	769	154	5.60062E-001	4.83712E-007	0.00000E+000	5.60006E-001	0.00000E+000	8	...........	1367.31
	770	154.2	5.70073E-001	4.80145E-007	0.00000E+000	5.70003E-001	0.00000E+000	8	...........	1367.31
	771	154.4	5.80056E-001	4.77584E-007	0.00000E+000	5.80001E-001	0.00000E+000	8	...........	1367.31
	772	154.6	5.90062E-001	4.75087E-007	0.00000E+000	5.89998E-001	0.00000E+000	8	...........	1367.31
	773	154.8	6.00039E-001	4.72877E-007	0.00000E+000	5.99995E-001	0.00000E+000	8	...........	1367.31
	774	155	6.10063E-001	4.70736E-007	0.00000E+000	6.09993E-001	0.00000E+000	8	...........	1367.31
	775	155.2	6.20044E-001	4.69824E-007	0.00000E+000	6.19990E-001	0.00000E+000	8	...........	1367.31
	776	155.4	6.30046E-001	4.68254E-007	0.00000E+000	6.29988E-001	0.00000E+000	8	...........	1367.31
	777	155.6	6.40046E-001	4.67481E-007	0.00000E+000	6.39985E-001	0.00000E+000	8	...........	1367.31
	778	155.8	6.50048E-001	4.67038E-007	0.00000E+000	6.49983E-001	0.00000E+000	8	...........	1367.31
	779	156	6.60053E-001	4.65421E-007	0.00000E+000	6.59980E-001	0.00000E+000	8	...........	1367.31
	780	156.2	6.70038E-001	4.63779E-007	0.00000E+000	6.69977E-001	0.00000E+000	8	...........	1367.31
	781	156.4	6.80096E-001	4.63717E-007	0.00000E+000	6.80025E-001	0.00000E+000	8	...........	1367.31
	782	156.6	6.90083E-001	4.62601E-007	0.00000E+000	6.90022E-001	0.00000E+000	8	...........	1367.31
	783	156.8	7.00087E-001	4.65510E-007	0.00000E+000	7.00020E-001	0.00000E+000	8	...........	1367.31
	784	157	7.10108E-001	4.70530E-007	0.00000E+000	7.10017E-001	0.00000E+000	8	...........	1367.31
	785	157.2	7.20086E-001	4.78699E-007	0.00000E+000	7.20015E-001	0.00000E+000	8	...........	1367.31
	786	157.4	7.30092E-001	4.94827E-007	0.00000E+000	7.30012E-001	0.00000E+000	8	...........	1367.31
	787	157.6	7.40072E-001	5.19515E-007	0.00000E+000	7.40010E-001	0.00000E+000	8	...........	1367.31
	788	157.8	7.50078E-001	5.57172E-007	0.00000E+000	7.50007E-001	0.00000E+000	8	...........	1367.31
	789	158	7.60076E-001	6.11873E-007	0.00000E+000	7.60004E-001	0.00000E+000	8	...........	1367.27
	790	158.2	7.70083E-001	6.94706E-007	0.00000E+000	7.70002E-001	0.00000E+000	8	...........	1367.22
	791	158.4	7.80051E-001	8.12355E-007	0.00000E+000	7.79999E-001	0.00000E+000	8	...........	1367.22
	792	158.6	7.90069E-001	9.82896E-007	0.00000E+000	7.89997E-001	0.00000E+000	8	...........	1367.22
	793	158.8	8.00072E-001	1.23291E-006	0.00000E+000	7.99994E-001	0.00000E+000	8	...........	1367.22
CURVE4	TABLE
	Pt	T	Vf	Im	Vu	Sig	Ach	IERange	Over	Temp
	#	s	V vs. Ref.	A	V	V	V	#	bits	deg C
	794	159	7.90087E-001	2.49811E-007	0.00000E+000	7.89997E-001	0.00000E+000	8	...........	1367.27
	795	159.2	7.80082E-001	-5.00419E-009	0.00000E+000	7.79999E-001	0.00000E+000	8	...........	1367.31
	796	159.4	7.70106E-001	-1.29695E-007	0.00000E+000	7.70002E-001	0.00000E+000	8	...........	1367.31
	797	159.6	7.60107E-001	-1.97334E-007	0.00000E+000	7.60004E-001	0.00000E+000	8	...........	1367.31
	798	159.8	7.50107E-001	-2.38237E-007	0.00000E+000	7.50007E-001	0.00000E+000	8	...........	1367.31
	799	160	7.40097E-001	-2.65315E-007	0.00000E+000	7.40010E-001	0.00000E+000	8	...........	1367.31
	800	160.2	7.30129E-001	-2.83857E-007	0.00000E+000	7.30012E-001	0.00000E+000	8	...........	1367.31
	801	160.4	7.20111E-001	-2.98018E-007	0.00000E+000	7.20015E-001	0.00000E+000	8	...........	1367.31
	802	160.6	7.10130E-001	-3.10075E-007	0.00000E+000	7.10017E-001	0.00000E+000	8	...........	1367.31
	803	160.8	7.00106E-001	-3.21635E-007	0.00000E+000	7.00020E-001	0.00000E+000	8	...........	1367.31
	804	161	6.90100E-001	-3.32255E-007	0.00000E+000	6.90022E-001	0.00000E+000	8	...........	1367.31
	805	161.2	6.80120E-001	-3.41492E-007	0.00000E+000	6.80025E-001	0.00000E+000	8	...........	1367.31
	806	161.4	6.70076E-001	-3.52268E-007	0.00000E+000	6.69977E-001	0.00000E+000	8	...........	1367.31
	807	161.6	6.60072E-001	-3.60866E-007	0.00000E+000	6.59980E-001	0.00000E+000	8	...........	1367.31
	808	161.8	6.50069E-001	-3.69859E-007	0.00000E+000	6.49983E-001	0.00000E+000	8	...........	1367.31
	809	162	6.40060E-001	-3.77966E-007	0.00000E+000	6.39985E-001	0.00000E+000	8	...........	1367.27
	810	162.2	6.30079E-001	-3.84843E-007	0.00000E+000	6.29988E-001	0.00000E+000	8	...........	1367.22
	811	162.4	6.20077E-001	-3.89745E-007	0.00000E+000	6.19990E-001	0.00000E+000	8	...........	1367.22
	812	162.6	6.10076E-001	-3.94220E-007	0.00000E+000	6.09993E-001	0.00000E+000	8	...........	1367.22
	813	162.8	6.00070E-001	-3.98627E-007	0.00000E+000	5.99995E-001	0.00000E+000	8	...........	1367.22
	814	163	5.90091E-001	-4.03377E-007	0.00000E+000	5.89998E-001	0.00000E+000	8	...........	1367.27
	815	163.2	5.80090E-001	-4.08686E-007	0.00000E+000	5.80001E-001	0.00000E+000	8	...........	1367.31
	816	163.4	5.70089E-001	-4.15010E-007	0.00000E+000	5.70003E-001	0.00000E+000	8	...........	1367.31
	817	163.6	5.60089E-001	-4.21038E-007	0.00000E+000	5.60006E-001	0.00000E+000	8	...........	1367.31
	818	163.8	5.50091E-001	-4.27335E-007	0.00000E+000	5.50008E-001	0.00000E+000	8	...........	1367.31
	819	164	5.40087E-001	-4.32808E-007	0.00000E+000	5.40011E-001	0.00000E+000	8	...........	1367.31
	820	164.2	5.30089E-001	-4.38649E-007	0.00000E+000	5.30013E-001	0.00000E+000	8	...........	1367.31
	821	164.4	5.20091E-001	-4.45657E-007	0.00000E+000	5.20016E-001	0.00000E+000	8	...........	1367.31
	822	164.6	5.10080E-001	-4.50992E-007	0.00000E+000	5.10018E-001	0.00000E+000	8	...........	1367.31
	823	164.8	5.00112E-001	-4.57432E-007	0.00000E+000	5.00021E-001	0.00000E+000	8	...........	1367.31
	824	165	4.90112E-001	-4.65447E-007	0.00000E+000	4.90024E-001	0.00000E+000	8	...........	1367.27
	825	165.2	4.80053E-001	-4.75401E-007	0.00000E+000	4.79976E-001	0.00000E+000	8	...........	1367.22
	826	165.4	4.70044E-001	-4.80865E-007	0.00000E+000	4.69979E-001	0.00000E+000	8	...........	1367.22
	827	165.6	4.60055E-001	-4.89375E-007	0.00000E+000	4.59981E-001	0.00000E+000	8	...........	1367.22
	828	165.8	4.50057E-001	-4.97149E-007	0.00000E+000	4.49984E-001	0.00000E+000	8	...........	1367.22
	829	166	4.40043E-001	-5.04979E-007	0.00000E+000	4.39986E-001	0.00000E+000	8	...........	1367.27
	830	166.2	4.30052E-001	-5.12783E-007	0.00000E+000	4.29989E-001	0.00000E+000	8	...........	1367.31
	831	166.4	4.20058E-001	-5.19692E-007	0.00000E+000	4.19991E-001	0.00000E+000	8	...........	1367.31
	832	166.6	4.10065E-001	-5.25986E-007	0.00000E+000	4.09994E-001	0.00000E+000	8	...........	1367.31
	833	166.8	4.00063E-001	-5.31417E-007	0.00000E+000	3.99997E-001	0.00000E+000	8	...........	1367.31
	834	167	3.90051E-001	-5.36751E-007	0.00000E+000	3.89999E-001	0.00000E+000	8	...........	1367.31
	835	167.2	3.80048E-001	-5.40673E-007	0.00000E+000	3.80002E-001	0.00000E+000	8	...........	1367.31
	836	167.4	3.70050E-001	-5.41485E-007	0.00000E+000	3.70004E-001	0.00000E+000	8	...........	1367.31
	837	167.6	3.60063E-001	-5.38445E-007	0.00000E+000	3.60007E-001	0.00000E+000	8	...........	1367.31
	838	167.8	3.50072E-001	-5.35885E-007	0.00000E+000	3.50009E-001	0.00000E+000	8	...........	1367.31
	839	168	3.40051E-001	-5.34141E-007	0.00000E+000	3.40012E-001	0.00000E+000	8	...........	1367.31
	840	168.2	3.30056E-001	-5.32306E-007	0.00000E+000	3.30014E-001	0.00000E+000	8	...........	1367.31