File: Test_Data_Files/20250509_ZL_IF0011_IIA42_E09_PBSair_PEDOT_CV50.DTA
EXPLAIN
TAG	CV
TITLE	LABEL	CV50	Test Identifier
DATE	LABEL	5/9/2025	Date
TIME	LABEL	15:45:17	Time
NOTES	NOTES	1	Notes...

PSTAT	PSTAT	REF600P-43058	Potentiostat
VINIT	POTEN	0.00000E+000	T	Initial E (V)
VLIMIT1	POTEN	-9.00000E-001	F	Scan Limit 1 (V)
VLIMIT2	POTEN	6.00000E-001	F	Scan Limit 2 (V)
VFINAL	POTEN	0.00000E+000	T	Final E (V)
SCANRATE	QUANT	4.99999E+001	Scan Rate (mV/s)
STEPSIZE	QUANT	1.00000E+001	Step Size (mV)
CYCLES	IQUANT	3	Cycles (#)
IMODE	SELECTOR	1	I/E Range Mode
IRANGE	QUANT	1.00000E-003	Max Current (mA)
AREA	QUANT	1.00000E+000	Sample Area (cm^2)
EQDELAY	QUANT	5.00000E+000	Equil. Time (s)
IRCOMP	SELECTOR	0	IRComp
PFCOR	QUANT	5.00000E+001	PF Corr. (ohm)
SAMPLINGMODE	SELECTOR	2	Sampling Mode
EOC	QUANT	0.1477523	Open Circuit (V)
ELECTRODETYPE	SELECTOR	0	Electrode Type
STRIPPING	TOGGLE	F	Used for Stripping
SEQUENCER	TOGGLE	TRUE	Run as Sequence
PSTATMODEL	IQUANT	7	Pstat Model
PSTATSECTION	LABEL	REF600P-43058	Pstat Section
PSTATSERIALNO	LABEL	43058	Pstat Serial Number
CTRLMODE	IQUANT	1	Control Mode
ELECTROMETER	IQUANT	0	RE=0 or CS=1
IESTAB	IQUANT	2	I/E Stability
CASPEED	IQUANT	4	Control Amp Speed
CONVENTION	IQUANT	1	Current Convention
ICHRANGE	IQUANT	2	Ich Range
ICHRANGEMODE	TOGGLE	F	Ich Auto Range
ICHOFFSETENABLE	TOGGLE	F	Ich Offset Enable
ICHOFFSET	QUANT	0	Ich Offset (V)
ICHFILTER	IQUANT	2	Ich Filter
VCHRANGE	IQUANT	2	Vch Range
VCHRANGEMODE	TOGGLE	F	Vch Auto Range
VCHOFFSETENABLE	TOGGLE	F	Vch Offset Enable
VCHOFFSET	QUANT	0	Vch Offset (V)
VCHFILTER	IQUANT	2	Vch Filter
ACHRANGE	IQUANT	2	Ach Range
ACHOFFSETENABLE	TOGGLE	F	Ach Offset Enable
ACHOFFSET	QUANT	0	Ach Offset (V)
ACHFILTER	IQUANT	1	Ach Filter
IERANGELOWERLIMIT	IQUANT	1	I/E Range Lower Limit
IERANGEMODE	TOGGLE	F	I/E AutoRange
IERANGE	IQUANT	6	I/E Range
POSFEEDENABLE	TOGGLE	F	Positive Feedback IR Comp
POSFEEDRESISTANCE	QUANT	0	Positive Feedback Resistance (ohm)
ACHSELECT	IQUANT	4	Ach Select
SENSECABLEID	IQUANT	7	Sense Cable ID
PWRCABLEID	IQUANT	7	Power Cable ID
DCCALDATE	LABEL	5/8/2025	DC Calibration Date
ACCALDATE	LABEL	5/8/2025	AC Calibration Date
THERMOSELECT	IQUANT	1	Thermo Select
FRAMEWORKVERSION	LABEL	7.10.4	Framework Version
INSTRUMENTVERSION	LABEL	5.01	Instrument Version
COMMVERSION	LABEL	5.10	Communications Version
CPUPLDVERSION	LABEL	6.00	CPU PLD Version
CTRLPLDVERSION	LABEL	3.21	CTRL PLD Version
PSTATPLDVERSION	LABEL	0.00	PSTAT PLD Version
CURVE1	TABLE
	Pt	T	Vf	Im	Vu	Sig	Ach	IERange	Over	Temp
	#	s	V vs. Ref.	A	V	V	V	#	bits	deg C
	0	0.2	1.47914E-001	5.36694E-010	0.00000E+000	1.47750E-001	1.43801E-003	6	...........	-327.66
	1	0.4	1.37789E-001	-3.02082E-008	0.00000E+000	1.37750E-001	1.42292E-003	6	...........	-327.66
	2	0.6	1.27787E-001	-3.09833E-008	0.00000E+000	1.27750E-001	1.43679E-003	6	...........	-327.66
	3	0.8	1.17771E-001	-3.13343E-008	0.00000E+000	1.17750E-001	1.43489E-003	6	...........	-327.66
	4	1	1.07840E-001	-3.15693E-008	0.00000E+000	1.07750E-001	1.43075E-003	6	...........	-327.66
	5	1.2	9.77454E-002	-3.18201E-008	0.00000E+000	9.77500E-002	1.43744E-003	6	...........	-327.66
	6	1.4	8.78028E-002	-3.20968E-008	0.00000E+000	8.77500E-002	1.44551E-003	6	...........	-327.66
	7	1.6	7.77360E-002	-3.24156E-008	0.00000E+000	7.77500E-002	1.43204E-003	6	...........	-327.66
	8	1.8	6.78589E-002	-3.26895E-008	0.00000E+000	6.77500E-002	1.43582E-003	6	...........	-327.66
	9	2	5.77515E-002	-3.29967E-008	0.00000E+000	5.77500E-002	1.42377E-003	6	...........	-327.66
	10	2.2	4.77893E-002	-3.32509E-008	0.00000E+000	4.77500E-002	1.43491E-003	6	...........	-327.66
	11	2.4	3.78184E-002	-3.36620E-008	0.00000E+000	3.77500E-002	1.44739E-003	6	...........	-327.66
	12	2.6	2.78677E-002	-3.39704E-008	0.00000E+000	2.77500E-002	1.43971E-003	6	...........	-327.66
	13	2.8	1.77920E-002	-3.43632E-008	0.00000E+000	1.77500E-002	1.44136E-003	6	...........	-327.66
	14	3	7.80312E-003	-3.47116E-008	0.00000E+000	7.74999E-003	1.44319E-003	6	...........	-327.66
	15	3.2	-2.27661E-003	-3.51256E-008	0.00000E+000	-2.25002E-003	1.44731E-003	6	...........	-327.66
	16	3.4	-1.21134E-002	-3.54698E-008	0.00000E+000	-1.22500E-002	1.43587E-003	6	...........	-327.66
	17	3.6	-2.22813E-002	-3.58858E-008	0.00000E+000	-2.22500E-002	1.43220E-003	6	...........	-327.66
	18	3.8	-3.22017E-002	-3.63310E-008	0.00000E+000	-3.22500E-002	1.43414E-003	6	...........	-327.66
	19	4	-4.22040E-002	-3.67548E-008	0.00000E+000	-4.22500E-002	1.43479E-003	6	...........	-327.66
	20	4.2	-5.21636E-002	-3.71655E-008	0.00000E+000	-5.22500E-002	1.44179E-003	6	...........	-327.66
	21	4.4	-6.22529E-002	-3.75888E-008	0.00000E+000	-6.22500E-002	1.44476E-003	6	...........	-327.66
	22	4.6	-7.22329E-002	-3.80928E-008	0.00000E+000	-7.22500E-002	1.44594E-003	6	...........	-327.66
	23	4.8	-8.22890E-002	-3.85904E-008	0.00000E+000	-8.22500E-002	1.43432E-003	6	...........	-327.66
	24	5	-9.21748E-002	-3.90331E-008	0.00000E+000	-9.22500E-002	1.43194E-003	6	...........	-327.66
	25	5.2	-1.02314E-001	-3.96259E-008	0.00000E+000	-1.02250E-001	1.42622E-003	6	...........	-327.66
	26	5.4	-1.12175E-001	-4.01276E-008	0.00000E+000	-1.12250E-001	1.43164E-003	6	...........	-327.66
	27	5.6	-1.22261E-001	-4.07753E-008	0.00000E+000	-1.22250E-001	1.43429E-003	6	...........	-327.66
	28	5.8	-1.32165E-001	-4.12376E-008	0.00000E+000	-1.32250E-001	1.43172E-003	6	...........	-327.66
	29	6	-1.42225E-001	-4.19214E-008	0.00000E+000	-1.42250E-001	1.43546E-003	6	...........	-327.66
	30	6.2	-1.52269E-001	-4.25065E-008	0.00000E+000	-1.52250E-001	1.43269E-003	6	...........	-327.66
	31	6.4	-1.62289E-001	-4.32433E-008	0.00000E+000	-1.62250E-001	1.44242E-003	6	...........	-327.66
	32	6.6	-1.72158E-001	-4.38327E-008	0.00000E+000	-1.72250E-001	1.43736E-003	6	...........	-327.66
	33	6.8	-1.82288E-001	-4.45533E-008	0.00000E+000	-1.82250E-001	1.42590E-003	6	...........	-327.66
	34	7	-1.92204E-001	-4.52857E-008	0.00000E+000	-1.92250E-001	1.43617E-003	6	...........	-327.66
	35	7.2	-2.02287E-001	-4.61027E-008	0.00000E+000	-2.02250E-001	1.42934E-003	6	...........	-327.66
	36	7.4	-2.12082E-001	-4.68987E-008	0.00000E+000	-2.12250E-001	1.44451E-003	6	...........	-327.66
	37	7.6	-2.22191E-001	-4.76413E-008	0.00000E+000	-2.22250E-001	1.44012E-003	6	...........	-327.66
	38	7.8	-2.32199E-001	-4.84621E-008	0.00000E+000	-2.32250E-001	1.43541E-003	6	...........	-327.66
	39	8	-2.42205E-001	-4.93351E-008	0.00000E+000	-2.42250E-001	1.43547E-003	6	...........	-327.66
	40	8.2	-2.52141E-001	-5.01828E-008	0.00000E+000	-2.52250E-001	1.42857E-003	6	...........	-327.66
	41	8.4	-2.62217E-001	-5.10633E-008	0.00000E+000	-2.62250E-001	1.43047E-003	6	...........	-327.66
	42	8.6	-2.72171E-001	-5.18687E-008	0.00000E+000	-2.72250E-001	1.44249E-003	6	...........	-327.66
	43	8.8	-2.82218E-001	-5.27789E-008	0.00000E+000	-2.82250E-001	1.43275E-003	6	...........	-327.66
	44	9	-2.92050E-001	-5.36390E-008	0.00000E+000	-2.92250E-001	1.43744E-003	6	...........	-327.66
	45	9.2	-3.02230E-001	-5.45571E-008	0.00000E+000	-3.02250E-001	1.44458E-003	6	...........	-327.66
	46	9.4	-3.12174E-001	-5.54340E-008	0.00000E+000	-3.12250E-001	1.44706E-003	6	...........	-327.66
	47	9.6	-3.22169E-001	-5.64051E-008	0.00000E+000	-3.22250E-001	1.44157E-003	6	...........	-327.66
	48	9.8	-3.32190E-001	-5.73034E-008	0.00000E+000	-3.32250E-001	1.45021E-003	6	...........	-327.66
	49	10	-3.42254E-001	-5.82266E-008	0.00000E+000	-3.42250E-001	1.43636E-003	6	...........	-327.66
	50	10.2	-3.52230E-001	-5.92580E-008	0.00000E+000	-3.52250E-001	1.44112E-003	6	...........	-327.66
	51	10.4	-3.62223E-001	-6.02210E-008	0.00000E+000	-3.62250E-001	1.43527E-003	6	...........	-327.66
	52	10.6	-3.72138E-001	-6.11431E-008	0.00000E+000	-3.72250E-001	1.45106E-003	6	...........	-327.66
	53	10.8	-3.82250E-001	-6.21601E-008	0.00000E+000	-3.82250E-001	1.44174E-003	6	...........	-327.66
	54	11	-3.92177E-001	-6.31340E-008	0.00000E+000	-3.92250E-001	1.44226E-003	6	...........	-327.66
	55	11.2	-4.02208E-001	-6.41198E-008	0.00000E+000	-4.02250E-001	1.44733E-003	6	...........	-327.66
	56	11.4	-4.12074E-001	-6.49682E-008	0.00000E+000	-4.12250E-001	1.43787E-003	6	...........	-327.66
	57	11.6	-4.22224E-001	-6.59532E-008	0.00000E+000	-4.22250E-001	1.43742E-003	6	...........	-327.66
	58	11.8	-4.32149E-001	-6.68653E-008	0.00000E+000	-4.32250E-001	1.43312E-003	6	...........	-327.66
	59	12	-4.42220E-001	-6.79267E-008	0.00000E+000	-4.42250E-001	1.44167E-003	6	...........	-327.66
	60	12.2	-4.52076E-001	-6.87593E-008	0.00000E+000	-4.52250E-001	1.44106E-003	6	...........	-327.66
	61	12.4	-4.62181E-001	-6.97866E-008	0.00000E+000	-4.62250E-001	1.44506E-003	6	...........	-327.66
	62	12.6	-4.71986E-001	-7.07697E-008	0.00000E+000	-4.72250E-001	1.45436E-003	6	...........	-327.66
	63	12.8	-4.82157E-001	-7.19117E-008	0.00000E+000	-4.82250E-001	1.44834E-003	6	...........	-327.66
	64	13	-4.92040E-001	-7.28281E-008	0.00000E+000	-4.92250E-001	1.44763E-003	6	...........	-327.66
	65	13.2	-5.02127E-001	-7.38936E-008	0.00000E+000	-5.02250E-001	1.45053E-003	6	...........	-327.66
	66	13.4	-5.12098E-001	-7.50405E-008	0.00000E+000	-5.12250E-001	1.43322E-003	6	...........	-327.66
	67	13.6	-5.22205E-001	-7.61268E-008	0.00000E+000	-5.22250E-001	1.44112E-003	6	...........	-327.66
	68	13.8	-5.32098E-001	-7.72903E-008	0.00000E+000	-5.32250E-001	1.44988E-003	6	...........	-327.66
	69	14	-5.42223E-001	-7.82655E-008	0.00000E+000	-5.42250E-001	1.44668E-003	6	...........	-327.66
	70	14.2	-5.52083E-001	-7.93854E-008	0.00000E+000	-5.52250E-001	1.44791E-003	6	...........	-327.66
	71	14.4	-5.62215E-001	-8.05858E-008	0.00000E+000	-5.62250E-001	1.44964E-003	6	...........	-327.66
	72	14.6	-5.72021E-001	-8.16529E-008	0.00000E+000	-5.72250E-001	1.44804E-003	6	...........	-327.66
	73	14.8	-5.82149E-001	-8.27497E-008	0.00000E+000	-5.82250E-001	1.43561E-003	6	...........	-327.66
	74	15	-5.92120E-001	-8.36872E-008	0.00000E+000	-5.92250E-001	1.43824E-003	6	...........	-327.66
	75	15.2	-6.02118E-001	-8.47814E-008	0.00000E+000	-6.02250E-001	1.44137E-003	6	...........	-327.66
	76	15.4	-6.12059E-001	-8.57473E-008	0.00000E+000	-6.12250E-001	1.43986E-003	6	...........	-327.66
	77	15.6	-6.22168E-001	-8.66893E-008	0.00000E+000	-6.22250E-001	1.44953E-003	6	...........	-327.66
	78	15.8	-6.32057E-001	-8.74891E-008	0.00000E+000	-6.32250E-001	1.45248E-003	6	...........	-327.66
	79	16	-6.42151E-001	-8.83297E-008	0.00000E+000	-6.42250E-001	1.44949E-003	6	...........	-327.66
	80	16.2	-6.51985E-001	-8.89675E-008	0.00000E+000	-6.52250E-001	1.44678E-003	6	...........	-327.66
	81	16.4	-6.62151E-001	-8.95508E-008	0.00000E+000	-6.62250E-001	1.43672E-003	6	...........	-327.66
	82	16.6	-6.72058E-001	-8.98702E-008	0.00000E+000	-6.72250E-001	1.44174E-003	6	...........	-327.66
	83	16.8	-6.82098E-001	-8.99754E-008	0.00000E+000	-6.82250E-001	1.44996E-003	6	...........	-327.66
	84	17	-6.92040E-001	-8.96463E-008	0.00000E+000	-6.92250E-001	1.45171E-003	6	...........	-327.66
	85	17.2	-7.02138E-001	-8.89585E-008	0.00000E+000	-7.02250E-001	1.44342E-003	6	...........	-327.66
	86	17.4	-7.12098E-001	-8.78305E-008	0.00000E+000	-7.12250E-001	1.45053E-003	6	...........	-327.66
	87	17.6	-7.22184E-001	-8.60613E-008	0.00000E+000	-7.22250E-001	1.44726E-003	6	...........	-327.66
	88	17.8	-7.32057E-001	-8.36496E-008	0.00000E+000	-7.32250E-001	1.44413E-003	6	...........	-327.66
	89	18	-7.42194E-001	-8.07885E-008	0.00000E+000	-7.42250E-001	1.43792E-003	6	...........	-327.66
	90	18.2	-7.52091E-001	-7.74811E-008	0.00000E+000	-7.52250E-001	1.44513E-003	6	...........	-327.66
	91	18.4	-7.62149E-001	-7.45976E-008	0.00000E+000	-7.62250E-001	1.44999E-003	6	...........	-327.66
	92	18.6	-7.72025E-001	-7.03677E-008	0.00000E+000	-7.72250E-001	1.44084E-003	6	...........	-327.66
	93	18.8	-7.82104E-001	-6.61488E-008	0.00000E+000	-7.82250E-001	1.45116E-003	6	...........	-327.66
	94	19	-7.92114E-001	-6.17965E-008	0.00000E+000	-7.92250E-001	1.45061E-003	6	...........	-327.66
	95	19.2	-8.02181E-001	-5.77620E-008	0.00000E+000	-8.02250E-001	1.44781E-003	6	...........	-327.66
	96	19.4	-8.12027E-001	-5.36359E-008	0.00000E+000	-8.12250E-001	1.43952E-003	6	...........	-327.66
	97	19.6	-8.22194E-001	-4.97674E-008	0.00000E+000	-8.22250E-001	1.43542E-003	6	...........	-327.66
	98	19.8	-8.32073E-001	-4.62908E-008	0.00000E+000	-8.32250E-001	1.44484E-003	6	...........	-327.66
	99	20	-8.42168E-001	-4.31189E-008	0.00000E+000	-8.42250E-001	1.43767E-003	6	...........	-327.66
	100	20.2	-8.52028E-001	-4.01374E-008	0.00000E+000	-8.52250E-001	1.44708E-003	6	...........	-327.66
	101	20.4	-8.62127E-001	-3.73854E-008	0.00000E+000	-8.62250E-001	1.44449E-003	6	...........	-327.66
	102	20.6	-8.72023E-001	-3.51795E-008	0.00000E+000	-8.72250E-001	1.44868E-003	6	...........	-327.66
	103	20.8	-8.82051E-001	-3.33033E-008	0.00000E+000	-8.82250E-001	1.43686E-003	6	...........	-327.66
	104	21	-8.92044E-001	-3.15390E-008	0.00000E+000	-8.92250E-001	1.44004E-003	6	...........	-327.66
	105	21.2	-9.02155E-001	-3.00085E-008	0.00000E+000	-9.02250E-001	1.43569E-003	6	...........	-327.66
	106	21.4	-8.92073E-001	-2.59116E-008	0.00000E+000	-8.92250E-001	1.44931E-003	6	...........	-327.66
	107	21.6	-8.82202E-001	-2.36079E-008	0.00000E+000	-8.82250E-001	1.44833E-003	6	...........	-327.66
	108	21.8	-8.72196E-001	-2.17537E-008	0.00000E+000	-8.72250E-001	1.44354E-003	6	...........	-327.66
	109	22	-8.62204E-001	-2.01569E-008	0.00000E+000	-8.62250E-001	1.44754E-003	6	...........	-327.66
	110	22.2	-8.52103E-001	-1.86193E-008	0.00000E+000	-8.52250E-001	1.43977E-003	6	...........	-327.66
	111	22.4	-8.42228E-001	-1.71638E-008	0.00000E+000	-8.42250E-001	1.43269E-003	6	...........	-327.66
	112	22.6	-8.32148E-001	-1.56116E-008	0.00000E+000	-8.32250E-001	1.44049E-003	6	...........	-327.66
	113	22.8	-8.22195E-001	-1.40426E-008	0.00000E+000	-8.22250E-001	1.43115E-003	6	...........	-327.66
	114	23	-8.12075E-001	-1.22327E-008	0.00000E+000	-8.12250E-001	1.44471E-003	6	...........	-327.66
	115	23.2	-8.02147E-001	-1.03015E-008	0.00000E+000	-8.02250E-001	1.44608E-003	6	...........	-327.66
	116	23.4	-7.92179E-001	-8.05601E-009	0.00000E+000	-7.92250E-001	1.44744E-003	6	...........	-327.66
	117	23.6	-7.82136E-001	-5.53584E-009	0.00000E+000	-7.82250E-001	1.44368E-003	6	...........	-327.66
	118	23.8	-7.72070E-001	-2.66013E-009	0.00000E+000	-7.72250E-001	1.43962E-003	6	...........	-327.66
	119	24	-7.62213E-001	5.57954E-010	0.00000E+000	-7.62250E-001	1.44444E-003	6	...........	-327.66
	120	24.2	-7.52136E-001	4.26279E-009	0.00000E+000	-7.52250E-001	1.43779E-003	6	...........	-327.66
	121	24.4	-7.42246E-001	8.22403E-009	0.00000E+000	-7.42250E-001	1.44049E-003	6	...........	-327.66
	122	24.6	-7.32120E-001	1.24232E-008	0.00000E+000	-7.32250E-001	1.43984E-003	6	...........	-327.66
	123	24.8	-7.22185E-001	1.64946E-008	0.00000E+000	-7.22250E-001	1.45208E-003	6	...........	-327.66
	124	25	-7.12195E-001	2.02937E-008	0.00000E+000	-7.12250E-001	1.44674E-003	6	...........	-327.66
	125	25.2	-7.02206E-001	2.34489E-008	0.00000E+000	-7.02250E-001	1.46013E-003	6	...........	-327.66
	126	25.4	-6.92092E-001	2.56191E-008	0.00000E+000	-6.92250E-001	1.45596E-003	6	...........	-327.66
	127	25.6	-6.82166E-001	2.68181E-008	0.00000E+000	-6.82250E-001	1.44199E-003	6	...........	-327.66
	128	25.8	-6.72139E-001	2.73547E-008	0.00000E+000	-6.72250E-001	1.45385E-003	6	...........	-327.66
	129	26	-6.62199E-001	2.75816E-008	0.00000E+000	-6.62250E-001	1.44571E-003	6	...........	-327.66
	130	26.2	-6.52058E-001	2.76779E-008	0.00000E+000	-6.52250E-001	1.45386E-003	6	...........	-327.66
	131	26.4	-6.42186E-001	2.77788E-008	0.00000E+000	-6.42250E-001	1.45376E-003	6	...........	-327.66
	132	26.6	-6.32167E-001	2.80003E-008	0.00000E+000	-6.32250E-001	1.45168E-003	6	...........	-327.66
	133	26.8	-6.22191E-001	2.82076E-008	0.00000E+000	-6.22250E-001	1.45446E-003	6	...........	-327.66
	134	27	-6.12134E-001	2.85945E-008	0.00000E+000	-6.12250E-001	1.44778E-003	6	...........	-327.66
	135	27.2	-6.02174E-001	2.88911E-008	0.00000E+000	-6.02250E-001	1.45533E-003	6	...........	-327.66
	136	27.4	-5.92226E-001	2.93288E-008	0.00000E+000	-5.92250E-001	1.44151E-003	6	...........	-327.66
	137	27.6	-5.82220E-001	2.96773E-008	0.00000E+000	-5.82250E-001	1.44934E-003	6	...........	-327.66
	138	27.8	-5.72104E-001	3.01194E-008	0.00000E+000	-5.72250E-001	1.45026E-003	6	...........	-327.66
	139	28	-5.62262E-001	3.05069E-008	0.00000E+000	-5.62250E-001	1.44916E-003	6	...........	-327.66
	140	28.2	-5.52175E-001	3.10130E-008	0.00000E+000	-5.52250E-001	1.46063E-003	6	...........	-327.66
	141	28.4	-5.42264E-001	3.14626E-008	0.00000E+000	-5.42250E-001	1.45685E-003	6	...........	-327.66
	142	28.6	-5.32189E-001	3.19438E-008	0.00000E+000	-5.32250E-001	1.45660E-003	6	...........	-327.66
	143	28.8	-5.22279E-001	3.23936E-008	0.00000E+000	-5.22250E-001	1.43881E-003	6	...........	-327.66
	144	29	-5.12262E-001	3.29706E-008	0.00000E+000	-5.12250E-001	1.44793E-003	6	...........	-327.66
	145	29.2	-5.02224E-001	3.35439E-008	0.00000E+000	-5.02250E-001	1.44097E-003	6	...........	-327.66
	146	29.4	-4.92104E-001	3.40703E-008	0.00000E+000	-4.92250E-001	1.45703E-003	6	...........	-327.66
	147	29.6	-4.82263E-001	3.45469E-008	0.00000E+000	-4.82250E-001	1.45108E-003	6	...........	-327.66
	148	29.8	-4.72070E-001	3.52590E-008	0.00000E+000	-4.72250E-001	1.45134E-003	6	...........	-327.66
	149	30	-4.62235E-001	3.59202E-008	0.00000E+000	-4.62250E-001	1.45631E-003	6	...........	-327.66
	150	30.2	-4.52116E-001	3.66054E-008	0.00000E+000	-4.52250E-001	1.45655E-003	6	...........	-327.66
	151	30.4	-4.42251E-001	3.70534E-008	0.00000E+000	-4.42250E-001	1.45760E-003	6	...........	-327.66
	152	30.6	-4.32228E-001	3.77322E-008	0.00000E+000	-4.32250E-001	1.45251E-003	6	...........	-327.66
	153	30.8	-4.22283E-001	3.83754E-008	0.00000E+000	-4.22250E-001	1.44249E-003	6	...........	-327.66
	154	31	-4.12124E-001	3.90101E-008	0.00000E+000	-4.12250E-001	1.45721E-003	6	...........	-327.66
	155	31.2	-4.02276E-001	3.96344E-008	0.00000E+000	-4.02250E-001	1.45521E-003	6	...........	-327.66
	156	31.4	-3.92232E-001	4.03377E-008	0.00000E+000	-3.92250E-001	1.45900E-003	6	...........	-327.66
	157	31.6	-3.82295E-001	4.09636E-008	0.00000E+000	-3.82250E-001	1.44608E-003	6	...........	-327.66
	158	31.8	-3.72179E-001	4.15648E-008	0.00000E+000	-3.72250E-001	1.45219E-003	6	...........	-327.66
	159	32	-3.62274E-001	4.21377E-008	0.00000E+000	-3.62250E-001	1.44157E-003	6	...........	-327.66
	160	32.2	-3.52274E-001	4.27173E-008	0.00000E+000	-3.52250E-001	1.45029E-003	6	...........	-327.66
	161	32.4	-3.42292E-001	4.33120E-008	0.00000E+000	-3.42250E-001	1.43824E-003	6	...........	-327.66
	162	32.6	-3.32225E-001	4.38376E-008	0.00000E+000	-3.32250E-001	1.45041E-003	6	...........	-327.66
	163	32.8	-3.22204E-001	4.42824E-008	0.00000E+000	-3.22250E-001	1.45603E-003	6	...........	-327.66
	164	33	-3.12222E-001	4.48165E-008	0.00000E+000	-3.12250E-001	1.44708E-003	6	...........	-327.66
	165	33.2	-3.02281E-001	4.52469E-008	0.00000E+000	-3.02250E-001	1.45099E-003	6	...........	-327.66
	166	33.4	-2.92060E-001	4.57754E-008	0.00000E+000	-2.92250E-001	1.45116E-003	6	...........	-327.66
	167	33.6	-2.82265E-001	4.61345E-008	0.00000E+000	-2.82250E-001	1.44057E-003	6	...........	-327.66
	168	33.8	-2.72228E-001	4.66237E-008	0.00000E+000	-2.72250E-001	1.44092E-003	6	...........	-327.66
	169	34	-2.62266E-001	4.69323E-008	0.00000E+000	-2.62250E-001	1.43210E-003	6	...........	-327.66
	170	34.2	-2.52181E-001	4.73598E-008	0.00000E+000	-2.52250E-001	1.44861E-003	6	...........	-327.66
	171	34.4	-2.42263E-001	4.76972E-008	0.00000E+000	-2.42250E-001	1.44779E-003	6	...........	-327.66
	172	34.6	-2.32260E-001	4.81132E-008	0.00000E+000	-2.32250E-001	1.45203E-003	6	...........	-327.66
	173	34.8	-2.22253E-001	4.84102E-008	0.00000E+000	-2.22250E-001	1.43977E-003	6	...........	-327.66
	174	35	-2.12129E-001	4.86177E-008	0.00000E+000	-2.12250E-001	1.45123E-003	6	...........	-327.66
	175	35.2	-2.02336E-001	4.89105E-008	0.00000E+000	-2.02250E-001	1.43957E-003	6	...........	-327.66
	176	35.4	-1.92270E-001	4.92488E-008	0.00000E+000	-1.92250E-001	1.45079E-003	6	...........	-327.66
	177	35.6	-1.82314E-001	4.95163E-008	0.00000E+000	-1.82250E-001	1.43649E-003	6	...........	-327.66
	178	35.8	-1.72209E-001	4.96925E-008	0.00000E+000	-1.72250E-001	1.43951E-003	6	...........	-327.66
	179	36	-1.62307E-001	4.97832E-008	0.00000E+000	-1.62250E-001	1.44859E-003	6	...........	-327.66
	180	36.2	-1.52314E-001	5.00896E-008	0.00000E+000	-1.52250E-001	1.44659E-003	6	...........	-327.66
	181	36.4	-1.42278E-001	5.03930E-008	0.00000E+000	-1.42250E-001	1.44734E-003	6	...........	-327.66
	182	36.6	-1.32162E-001	5.06256E-008	0.00000E+000	-1.32250E-001	1.44634E-003	6	...........	-327.66
	183	36.8	-1.22333E-001	5.05266E-008	0.00000E+000	-1.22250E-001	1.43896E-003	6	...........	-327.66
	184	37	-1.12220E-001	5.07944E-008	0.00000E+000	-1.12250E-001	1.44436E-003	6	...........	-327.66
	185	37.2	-1.02347E-001	5.11086E-008	0.00000E+000	-1.02250E-001	1.43856E-003	6	...........	-327.66
	186	37.4	-9.22040E-002	5.13408E-008	0.00000E+000	-9.22500E-002	1.44941E-003	6	...........	-327.66
	187	37.6	-8.23203E-002	5.14354E-008	0.00000E+000	-8.22500E-002	1.44222E-003	6	...........	-327.66
	188	37.8	-7.22999E-002	5.13506E-008	0.00000E+000	-7.22500E-002	1.44579E-003	6	...........	-327.66
	189	38	-6.22839E-002	5.15546E-008	0.00000E+000	-6.22500E-002	1.44769E-003	6	...........	-327.66
	190	38.2	-5.21462E-002	5.18514E-008	0.00000E+000	-5.22500E-002	1.45423E-003	6	...........	-327.66
	191	38.4	-4.22301E-002	5.19149E-008	0.00000E+000	-4.22500E-002	1.44823E-003	6	...........	-327.66
	192	38.6	-3.22694E-002	5.19146E-008	0.00000E+000	-3.22500E-002	1.44099E-003	6	...........	-327.66
	193	38.8	-2.23258E-002	5.20085E-008	0.00000E+000	-2.22500E-002	1.44534E-003	6	...........	-327.66
	194	39	-1.21224E-002	5.21608E-008	0.00000E+000	-1.22500E-002	1.45413E-003	6	...........	-327.66
	195	39.2	-2.31756E-003	5.22005E-008	0.00000E+000	-2.25002E-003	1.45703E-003	6	...........	-327.66
	196	39.4	7.76141E-003	5.23470E-008	0.00000E+000	7.74999E-003	1.45553E-003	6	...........	-327.66
	197	39.6	1.78110E-002	5.24053E-008	0.00000E+000	1.77500E-002	1.44603E-003	6	...........	-327.66
	198	39.8	2.78193E-002	5.25359E-008	0.00000E+000	2.77500E-002	1.45071E-003	6	...........	-327.66
	199	40	3.77812E-002	5.25716E-008	0.00000E+000	3.77500E-002	1.45196E-003	6	...........	-327.66
	200	40.2	4.77654E-002	5.27923E-008	0.00000E+000	4.77500E-002	1.45039E-003	6	...........	-327.66
	201	40.4	5.77171E-002	5.28911E-008	0.00000E+000	5.77500E-002	1.45354E-003	6	...........	-327.66
	202	40.6	6.78316E-002	5.30020E-008	0.00000E+000	6.77500E-002	1.45463E-003	6	...........	-327.66
	203	40.8	7.77117E-002	5.31527E-008	0.00000E+000	7.77500E-002	1.44794E-003	6	...........	-327.66
	204	41	8.77525E-002	5.33189E-008	0.00000E+000	8.77500E-002	1.46056E-003	6	...........	-327.66
	205	41.2	9.77360E-002	5.35513E-008	0.00000E+000	9.77500E-002	1.45208E-003	6	...........	-327.66
	206	41.4	1.07793E-001	5.37575E-008	0.00000E+000	1.07750E-001	1.46010E-003	6	...........	-327.66
	207	41.6	1.17749E-001	5.39048E-008	0.00000E+000	1.17750E-001	1.44973E-003	6	...........	-327.66
	208	41.8	1.27773E-001	5.40642E-008	0.00000E+000	1.27750E-001	1.45483E-003	6	...........	-327.66
	209	42	1.37749E-001	5.42727E-008	0.00000E+000	1.37750E-001	1.43854E-003	6	...........	-327.66
	210	42.2	1.47848E-001	5.44614E-008	0.00000E+000	1.47750E-001	1.45096E-003	6	...........	-327.66
	211	42.4	1.57740E-001	5.45952E-008	0.00000E+000	1.57750E-001	1.45406E-003	6	...........	-327.66
	212	42.6	1.67755E-001	5.48323E-008	0.00000E+000	1.67750E-001	1.45356E-003	6	...........	-327.66
	213	42.8	1.77764E-001	5.49772E-008	0.00000E+000	1.77750E-001	1.45955E-003	6	...........	-327.66
	214	43	1.87795E-001	5.51410E-008	0.00000E+000	1.87750E-001	1.45513E-003	6	...........	-327.66
	215	43.2	1.97773E-001	5.51900E-008	0.00000E+000	1.97750E-001	1.44866E-003	6	...........	-327.66
	216	43.4	2.07703E-001	5.53707E-008	0.00000E+000	2.07750E-001	1.44694E-003	6	...........	-327.66
	217	43.6	2.17768E-001	5.54805E-008	0.00000E+000	2.17750E-001	1.43499E-003	6	...........	-327.66
	218	43.8	2.27758E-001	5.56400E-008	0.00000E+000	2.27750E-001	1.44989E-003	6	...........	-327.66
	219	44	2.37699E-001	5.56810E-008	0.00000E+000	2.37750E-001	1.45503E-003	6	...........	-327.66
	220	44.2	2.47764E-001	5.58294E-008	0.00000E+000	2.47750E-001	1.44706E-003	6	...........	-327.66
	221	44.4	2.57679E-001	5.60290E-008	0.00000E+000	2.57750E-001	1.44714E-003	6	...........	-327.66
	222	44.6	2.67719E-001	5.61631E-008	0.00000E+000	2.67750E-001	1.45059E-003	6	...........	-327.66
	223	44.8	2.77702E-001	5.62537E-008	0.00000E+000	2.77750E-001	1.44334E-003	6	...........	-327.66
	224	45	2.87671E-001	5.64354E-008	0.00000E+000	2.87750E-001	1.44369E-003	6	...........	-327.66
	225	45.2	2.97683E-001	5.66798E-008	0.00000E+000	2.97750E-001	1.44454E-003	6	...........	-327.66
	226	45.4	3.07724E-001	5.69035E-008	0.00000E+000	3.07750E-001	1.44791E-003	6	...........	-327.66
	227	45.6	3.17706E-001	5.70638E-008	0.00000E+000	3.17750E-001	1.44899E-003	6	...........	-327.66
	228	45.8	3.27733E-001	5.73395E-008	0.00000E+000	3.27750E-001	1.45380E-003	6	...........	-327.66
	229	46	3.37685E-001	5.75833E-008	0.00000E+000	3.37750E-001	1.44786E-003	6	...........	-327.66
	230	46.2	3.47754E-001	5.79073E-008	0.00000E+000	3.47750E-001	1.45251E-003	6	...........	-327.66
	231	46.4	3.57724E-001	5.81284E-008	0.00000E+000	3.57750E-001	1.44724E-003	6	...........	-327.66
	232	46.6	3.67686E-001	5.84756E-008	0.00000E+000	3.67750E-001	1.44823E-003	6	...........	-327.66
	233	46.8	3.77724E-001	5.87812E-008	0.00000E+000	3.77750E-001	1.44958E-003	6	...........	-327.66
	234	47	3.87721E-001	5.91606E-008	0.00000E+000	3.87750E-001	1.45279E-003	6	...........	-327.66
	235	47.2	3.97710E-001	5.94835E-008	0.00000E+000	3.97750E-001	1.45269E-003	6	...........	-327.66
	236	47.4	4.07706E-001	5.98618E-008	0.00000E+000	4.07750E-001	1.45741E-003	6	...........	-327.66
	237	47.6	4.17658E-001	6.02860E-008	0.00000E+000	4.17750E-001	1.45269E-003	6	...........	-327.66
	238	47.8	4.27726E-001	6.07255E-008	0.00000E+000	4.27750E-001	1.43967E-003	6	...........	-327.66
	239	48	4.37664E-001	6.11689E-008	0.00000E+000	4.37750E-001	1.44506E-003	6	...........	-327.66
	240	48.2	4.47684E-001	6.16626E-008	0.00000E+000	4.47750E-001	1.45303E-003	6	...........	-327.66
	241	48.4	4.57674E-001	6.21101E-008	0.00000E+000	4.57750E-001	1.43641E-003	6	...........	-327.66
	242	48.6	4.67705E-001	6.26253E-008	0.00000E+000	4.67750E-001	1.45786E-003	6	...........	-327.66
	243	48.8	4.77679E-001	6.30708E-008	0.00000E+000	4.77750E-001	1.45460E-003	6	...........	-327.66
	244	49	4.87654E-001	6.35837E-008	0.00000E+000	4.87750E-001	1.44429E-003	6	...........	-327.66
	245	49.2	4.97651E-001	6.41137E-008	0.00000E+000	4.97750E-001	1.44307E-003	6	...........	-327.66
	246	49.4	5.07748E-001	6.47018E-008	0.00000E+000	5.07750E-001	1.44886E-003	6	...........	-327.66
	247	49.6	5.17651E-001	6.52187E-008	0.00000E+000	5.17750E-001	1.44644E-003	6	...........	-327.66
	248	49.8	5.27742E-001	6.58488E-008	0.00000E+000	5.27750E-001	1.44201E-003	6	...........	-327.66
	249	50	5.37650E-001	6.64360E-008	0.00000E+000	5.37750E-001	1.44009E-003	6	...........	-327.66
	250	50.2	5.47720E-001	6.71512E-008	0.00000E+000	5.47750E-001	1.44082E-003	6	...........	-327.66
	251	50.4	5.57670E-001	6.77965E-008	0.00000E+000	5.57750E-001	1.44174E-003	6	...........	-327.66
	252	50.6	5.67658E-001	6.85446E-008	0.00000E+000	5.67750E-001	1.45583E-003	6	...........	-327.66
	253	50.8	5.77610E-001	6.94080E-008	0.00000E+000	5.77750E-001	1.45688E-003	6	...........	-327.66
	254	51	5.87736E-001	7.03409E-008	0.00000E+000	5.87750E-001	1.45388E-003	6	...........	-327.66
	255	51.2	5.97667E-001	7.12733E-008	0.00000E+000	5.97750E-001	1.44461E-003	6	...........	-327.66
CURVE2	TABLE
	Pt	T	Vf	Im	Vu	Sig	Ach	IERange	Over	Temp
	#	s	V vs. Ref.	A	V	V	V	#	bits	deg C
	256	51.4	5.89987E-001	2.63123E-009	0.00000E+000	5.90000E-001	1.44734E-003	6	...........	-327.66
	257	51.6	5.79994E-001	-1.25080E-008	0.00000E+000	5.80000E-001	1.46417E-003	6	...........	-327.66
	258	51.8	5.69990E-001	-1.71711E-008	0.00000E+000	5.70000E-001	1.43414E-003	6	...........	-327.66
	259	52	5.59963E-001	-2.04668E-008	0.00000E+000	5.60000E-001	1.44686E-003	6	...........	-327.66
	260	52.2	5.49993E-001	-2.28791E-008	0.00000E+000	5.50000E-001	1.44152E-003	6	...........	-327.66
	261	52.4	5.39998E-001	-2.47831E-008	0.00000E+000	5.40000E-001	1.44843E-003	6	...........	-327.66
	262	52.6	5.30015E-001	-2.61517E-008	0.00000E+000	5.30000E-001	1.44104E-003	6	...........	-327.66
	263	52.8	5.19983E-001	-2.73647E-008	0.00000E+000	5.20000E-001	1.45001E-003	6	...........	-327.66
	264	53	5.09977E-001	-2.83081E-008	0.00000E+000	5.10000E-001	1.46467E-003	6	...........	-327.66
	265	53.2	5.00009E-001	-2.91782E-008	0.00000E+000	5.00000E-001	1.45858E-003	6	...........	-327.66
	266	53.4	4.89972E-001	-2.98922E-008	0.00000E+000	4.90000E-001	1.44374E-003	6	...........	-327.66
	267	53.6	4.79959E-001	-3.05415E-008	0.00000E+000	4.80000E-001	1.44888E-003	6	...........	-327.66
	268	53.8	4.69975E-001	-3.11282E-008	0.00000E+000	4.70000E-001	1.44366E-003	6	...........	-327.66
	269	54	4.59994E-001	-3.16832E-008	0.00000E+000	4.60000E-001	1.43977E-003	6	...........	-327.66
	270	54.2	4.50014E-001	-3.20519E-008	0.00000E+000	4.50000E-001	1.44351E-003	6	...........	-327.66
	271	54.4	4.39940E-001	-3.25295E-008	0.00000E+000	4.40000E-001	1.44594E-003	6	...........	-327.66
	272	54.6	4.29993E-001	-3.28535E-008	0.00000E+000	4.30000E-001	1.44169E-003	6	...........	-327.66
	273	54.8	4.20040E-001	-3.32433E-008	0.00000E+000	4.20000E-001	1.44127E-003	6	...........	-327.66
	274	55	4.09979E-001	-3.34888E-008	0.00000E+000	4.10000E-001	1.42944E-003	6	...........	-327.66
	275	55.2	3.99979E-001	-3.38189E-008	0.00000E+000	4.00000E-001	1.44391E-003	6	...........	-327.66
	276	55.4	3.89990E-001	-3.41140E-008	0.00000E+000	3.90000E-001	1.43574E-003	6	...........	-327.66
	277	55.6	3.80001E-001	-3.43816E-008	0.00000E+000	3.80000E-001	1.43356E-003	6	...........	-327.66
	278	55.8	3.70026E-001	-3.45960E-008	0.00000E+000	3.70000E-001	1.44341E-003	6	...........	-327.66
	279	56	3.59972E-001	-3.49206E-008	0.00000E+000	3.60000E-001	1.43884E-003	6	...........	-327.66
	280	56.2	3.50026E-001	-3.51266E-008	0.00000E+000	3.50000E-001	1.44489E-003	6	...........	-327.66
	281	56.4	3.40011E-001	-3.53777E-008	0.00000E+000	3.40000E-001	1.44569E-003	6	...........	-327.66
	282	56.6	3.30015E-001	-3.55115E-008	0.00000E+000	3.30000E-001	1.43717E-003	6	...........	-327.66
	283	56.8	3.19992E-001	-3.57761E-008	0.00000E+000	3.20000E-001	1.43904E-003	6	...........	-327.66
	284	57	3.09994E-001	-3.59732E-008	0.00000E+000	3.10000E-001	1.43409E-003	6	...........	-327.66
	285	57.2	3.00000E-001	-3.62120E-008	0.00000E+000	3.00000E-001	1.43629E-003	6	...........	-327.66
	286	57.4	2.90006E-001	-3.63133E-008	0.00000E+000	2.90000E-001	1.43662E-003	6	...........	-327.66
	287	57.6	2.79984E-001	-3.65056E-008	0.00000E+000	2.80000E-001	1.44344E-003	6	...........	-327.66
	288	57.8	2.70083E-001	-3.66616E-008	0.00000E+000	2.70000E-001	1.44082E-003	6	...........	-327.66
	289	58	2.60004E-001	-3.69359E-008	0.00000E+000	2.60000E-001	1.44136E-003	6	...........	-327.66
	290	58.2	2.50048E-001	-3.69783E-008	0.00000E+000	2.50000E-001	1.43300E-003	6	...........	-327.66
	291	58.4	2.40004E-001	-3.72081E-008	0.00000E+000	2.40000E-001	1.43042E-003	6	...........	-327.66
	292	58.6	2.29999E-001	-3.74125E-008	0.00000E+000	2.30000E-001	1.43337E-003	6	...........	-327.66
	293	58.8	2.20004E-001	-3.76362E-008	0.00000E+000	2.20000E-001	1.43240E-003	6	...........	-327.66
	294	59	2.10001E-001	-3.77347E-008	0.00000E+000	2.10000E-001	1.43511E-003	6	...........	-327.66
	295	59.2	2.00001E-001	-3.79355E-008	0.00000E+000	2.00000E-001	1.42794E-003	6	...........	-327.66
	296	59.4	1.90050E-001	-3.81046E-008	0.00000E+000	1.90000E-001	1.44573E-003	6	...........	-327.66
	297	59.6	1.80017E-001	-3.83501E-008	0.00000E+000	1.80000E-001	1.43629E-003	6	...........	-327.66
	298	59.8	1.70102E-001	-3.84850E-008	0.00000E+000	1.70000E-001	1.43047E-003	6	...........	-327.66
	299	60	1.60010E-001	-3.86992E-008	0.00000E+000	1.60000E-001	1.42984E-003	6	...........	-327.66
	300	60.2	1.50024E-001	-3.88082E-008	0.00000E+000	1.50000E-001	1.42845E-003	6	...........	-327.66
	301	60.4	1.40091E-001	-3.90436E-008	0.00000E+000	1.40000E-001	1.43822E-003	6	...........	-327.66
	302	60.6	1.30042E-001	-3.91614E-008	0.00000E+000	1.30000E-001	1.43025E-003	6	...........	-327.66
	303	60.8	1.20005E-001	-3.94674E-008	0.00000E+000	1.20000E-001	1.43362E-003	6	...........	-327.66
	304	61	1.10019E-001	-3.95740E-008	0.00000E+000	1.10000E-001	1.43247E-003	6	...........	-327.66
	305	61.2	1.00007E-001	-3.98147E-008	0.00000E+000	1.00000E-001	1.43714E-003	6	...........	-327.66
	306	61.4	9.01068E-002	-3.99277E-008	0.00000E+000	9.00000E-002	1.42389E-003	6	...........	-327.66
	307	61.6	7.99912E-002	-4.01702E-008	0.00000E+000	8.00000E-002	1.42375E-003	6	...........	-327.66
	308	61.8	7.00178E-002	-4.03617E-008	0.00000E+000	7.00000E-002	1.42745E-003	6	...........	-327.66
	309	62	6.00441E-002	-4.05532E-008	0.00000E+000	6.00000E-002	1.42620E-003	6	...........	-327.66
	310	62.2	5.00273E-002	-4.07126E-008	0.00000E+000	5.00000E-002	1.43414E-003	6	...........	-327.66
	311	62.4	4.00071E-002	-4.09857E-008	0.00000E+000	4.00000E-002	1.43752E-003	6	...........	-327.66
	312	62.6	3.00067E-002	-4.12539E-008	0.00000E+000	3.00000E-002	1.43976E-003	6	...........	-327.66
	313	62.8	2.00080E-002	-4.14641E-008	0.00000E+000	2.00000E-002	1.42960E-003	6	...........	-327.66
	314	63	1.00456E-002	-4.15936E-008	0.00000E+000	9.99999E-003	1.42345E-003	6	...........	-327.66
	315	63.2	-8.51136E-006	-4.18571E-008	0.00000E+000	-1.49012E-008	1.42437E-003	6	...........	-327.66
	316	63.4	-9.96847E-003	-4.20506E-008	0.00000E+000	-1.00000E-002	1.42342E-003	6	...........	-327.66
	317	63.6	-1.99576E-002	-4.23188E-008	0.00000E+000	-2.00000E-002	1.43739E-003	6	...........	-327.66
	318	63.8	-2.99682E-002	-4.24904E-008	0.00000E+000	-3.00000E-002	1.42637E-003	6	...........	-327.66
	319	64	-3.99467E-002	-4.27526E-008	0.00000E+000	-4.00000E-002	1.42630E-003	6	...........	-327.66
	320	64.2	-5.00039E-002	-4.30145E-008	0.00000E+000	-5.00000E-002	1.43050E-003	6	...........	-327.66
	321	64.4	-5.99830E-002	-4.33170E-008	0.00000E+000	-6.00000E-002	1.43697E-003	6	...........	-327.66
	322	64.6	-6.99483E-002	-4.34637E-008	0.00000E+000	-7.00000E-002	1.42540E-003	6	...........	-327.66
	323	64.8	-8.00069E-002	-4.37373E-008	0.00000E+000	-8.00000E-002	1.41960E-003	6	...........	-327.66
	324	65	-8.99568E-002	-4.39876E-008	0.00000E+000	-9.00000E-002	1.43010E-003	6	...........	-327.66
	325	65.2	-9.99828E-002	-4.42961E-008	0.00000E+000	-1.00000E-001	1.42492E-003	6	...........	-327.66
	326	65.4	-1.09976E-001	-4.45187E-008	0.00000E+000	-1.10000E-001	1.42895E-003	6	...........	-327.66
	327	65.6	-1.19985E-001	-4.47872E-008	0.00000E+000	-1.20000E-001	1.42977E-003	6	...........	-327.66
	328	65.8	-1.30006E-001	-4.50683E-008	0.00000E+000	-1.30000E-001	1.43499E-003	6	...........	-327.66
	329	66	-1.39955E-001	-4.53794E-008	0.00000E+000	-1.40000E-001	1.43614E-003	6	...........	-327.66
	330	66.2	-1.49997E-001	-4.56593E-008	0.00000E+000	-1.50000E-001	1.43324E-003	6	...........	-327.66
	331	66.4	-1.60004E-001	-4.59758E-008	0.00000E+000	-1.60000E-001	1.43060E-003	6	...........	-327.66
	332	66.6	-1.69967E-001	-4.62713E-008	0.00000E+000	-1.70000E-001	1.42984E-003	6	...........	-327.66
	333	66.8	-1.79994E-001	-4.66763E-008	0.00000E+000	-1.80000E-001	1.43859E-003	6	...........	-327.66
	334	67	-1.89871E-001	-4.69824E-008	0.00000E+000	-1.90000E-001	1.43494E-003	6	...........	-327.66
	335	67.2	-2.00013E-001	-4.74073E-008	0.00000E+000	-2.00000E-001	1.43300E-003	6	...........	-327.66
	336	67.4	-2.09980E-001	-4.77442E-008	0.00000E+000	-2.10000E-001	1.44061E-003	6	...........	-327.66
	337	67.6	-2.19900E-001	-4.81445E-008	0.00000E+000	-2.20000E-001	1.43827E-003	6	...........	-327.66
	338	67.8	-2.29968E-001	-4.84986E-008	0.00000E+000	-2.30000E-001	1.42710E-003	6	...........	-327.66
	339	68	-2.40000E-001	-4.90094E-008	0.00000E+000	-2.40000E-001	1.43342E-003	6	...........	-327.66
	340	68.2	-2.49982E-001	-4.94353E-008	0.00000E+000	-2.50000E-001	1.42407E-003	6	...........	-327.66
	341	68.4	-2.59983E-001	-4.99296E-008	0.00000E+000	-2.60000E-001	1.42514E-003	6	...........	-327.66
	342	68.6	-2.69918E-001	-5.03307E-008	0.00000E+000	-2.70000E-001	1.43159E-003	6	...........	-327.66
	343	68.8	-2.80010E-001	-5.08815E-008	0.00000E+000	-2.80000E-001	1.42830E-003	6	...........	-327.66
	344	69	-2.89958E-001	-5.13956E-008	0.00000E+000	-2.90000E-001	1.43972E-003	6	...........	-327.66
	345	69.2	-2.99970E-001	-5.20113E-008	0.00000E+000	-3.00000E-001	1.43632E-003	6	...........	-327.66
	346	69.4	-3.09969E-001	-5.25584E-008	0.00000E+000	-3.10000E-001	1.42348E-003	6	...........	-327.66
	347	69.6	-3.19996E-001	-5.32200E-008	0.00000E+000	-3.20000E-001	1.42957E-003	6	...........	-327.66
	348	69.8	-3.29991E-001	-5.37988E-008	0.00000E+000	-3.30000E-001	1.43190E-003	6	...........	-327.66
	349	70	-3.39991E-001	-5.44713E-008	0.00000E+000	-3.40000E-001	1.43052E-003	6	...........	-327.66
	350	70.2	-3.49960E-001	-5.49836E-008	0.00000E+000	-3.50000E-001	1.43277E-003	6	...........	-327.66
	351	70.4	-3.59994E-001	-5.56641E-008	0.00000E+000	-3.60000E-001	1.43257E-003	6	...........	-327.66
	352	70.6	-3.69867E-001	-5.62116E-008	0.00000E+000	-3.70000E-001	1.43571E-003	6	...........	-327.66
	353	70.8	-3.79979E-001	-5.68351E-008	0.00000E+000	-3.80000E-001	1.43717E-003	6	...........	-327.66
	354	71	-3.89944E-001	-5.73408E-008	0.00000E+000	-3.90000E-001	1.43399E-003	6	...........	-327.66
	355	71.2	-3.99967E-001	-5.79109E-008	0.00000E+000	-4.00000E-001	1.42674E-003	6	...........	-327.66
	356	71.4	-4.09969E-001	-5.85061E-008	0.00000E+000	-4.10000E-001	1.43379E-003	6	...........	-327.66
	357	71.6	-4.19957E-001	-5.90667E-008	0.00000E+000	-4.20000E-001	1.43491E-003	6	...........	-327.66
	358	71.8	-4.29938E-001	-5.96091E-008	0.00000E+000	-4.30000E-001	1.43189E-003	6	...........	-327.66
	359	72	-4.39984E-001	-6.01537E-008	0.00000E+000	-4.40000E-001	1.43466E-003	6	...........	-327.66
	360	72.2	-4.49901E-001	-6.07000E-008	0.00000E+000	-4.50000E-001	1.44376E-003	6	...........	-327.66
	361	72.4	-4.59955E-001	-6.12710E-008	0.00000E+000	-4.60000E-001	1.43275E-003	6	...........	-327.66
	362	72.6	-4.69825E-001	-6.18272E-008	0.00000E+000	-4.70000E-001	1.43741E-003	6	...........	-327.66
	363	72.8	-4.79933E-001	-6.24284E-008	0.00000E+000	-4.80000E-001	1.42857E-003	6	...........	-327.66
	364	73	-4.89942E-001	-6.29320E-008	0.00000E+000	-4.90000E-001	1.42559E-003	6	...........	-327.66
	365	73.2	-4.99865E-001	-6.35567E-008	0.00000E+000	-5.00000E-001	1.44049E-003	6	...........	-327.66
	366	73.4	-5.09903E-001	-6.40558E-008	0.00000E+000	-5.10000E-001	1.43577E-003	6	...........	-327.66
	367	73.6	-5.19987E-001	-6.47207E-008	0.00000E+000	-5.20000E-001	1.43726E-003	6	...........	-327.66
	368	73.8	-5.29921E-001	-6.52044E-008	0.00000E+000	-5.30000E-001	1.43966E-003	6	...........	-327.66
	369	74	-5.39951E-001	-6.58566E-008	0.00000E+000	-5.40000E-001	1.44136E-003	6	...........	-327.66
	370	74.2	-5.49825E-001	-6.62981E-008	0.00000E+000	-5.50000E-001	1.42667E-003	6	...........	-327.66
	371	74.4	-5.59962E-001	-6.68475E-008	0.00000E+000	-5.60000E-001	1.42687E-003	6	...........	-327.66
	372	74.6	-5.69872E-001	-6.73609E-008	0.00000E+000	-5.70000E-001	1.43097E-003	6	...........	-327.66
	373	74.8	-5.79856E-001	-6.78326E-008	0.00000E+000	-5.80000E-001	1.43356E-003	6	...........	-327.66
	374	75	-5.89910E-001	-6.82447E-008	0.00000E+000	-5.90000E-001	1.43634E-003	6	...........	-327.66
	375	75.2	-5.99913E-001	-6.87231E-008	0.00000E+000	-6.00000E-001	1.43717E-003	6	...........	-327.66
	376	75.4	-6.09916E-001	-6.91973E-008	0.00000E+000	-6.10000E-001	1.44074E-003	6	...........	-327.66
	377	75.6	-6.19954E-001	-6.95787E-008	0.00000E+000	-6.20000E-001	1.43599E-003	6	...........	-327.66
	378	75.8	-6.29839E-001	-6.98175E-008	0.00000E+000	-6.30000E-001	1.43269E-003	6	...........	-327.66
	379	76	-6.39952E-001	-7.02495E-008	0.00000E+000	-6.40000E-001	1.42208E-003	6	...........	-327.66
	380	76.2	-6.49793E-001	-7.05084E-008	0.00000E+000	-6.50000E-001	1.43050E-003	6	...........	-327.66
[...]
	700	140.2	-8.49880E-001	-3.58675E-008	0.00000E+000	-8.50000E-001	1.44694E-003	6	...........	-327.66
	701	140.4	-8.59829E-001	-3.39465E-008	0.00000E+000	-8.60000E-001	1.44703E-003	6	...........	-327.66
	702	140.6	-8.69884E-001	-3.20777E-008	0.00000E+000	-8.70000E-001	1.43446E-003	6	...........	-327.66
	703	140.8	-8.79942E-001	-3.03808E-008	0.00000E+000	-8.80000E-001	1.44491E-003	6	...........	-327.66
	704	141	-8.89888E-001	-2.88293E-008	0.00000E+000	-8.90000E-001	1.44656E-003	6	...........	-327.66
	705	141.2	-8.99944E-001	-2.75072E-008	0.00000E+000	-9.00000E-001	1.43946E-003	6	...........	-327.66
	706	141.4	-8.89947E-001	-2.26671E-008	0.00000E+000	-8.90000E-001	1.44157E-003	6	...........	-327.66
	707	141.6	-8.79980E-001	-2.00271E-008	0.00000E+000	-8.80000E-001	1.43616E-003	6	...........	-327.66
	708	141.8	-8.69982E-001	-1.79285E-008	0.00000E+000	-8.70000E-001	1.43996E-003	6	...........	-327.66
	709	142	-8.59889E-001	-1.60789E-008	0.00000E+000	-8.60000E-001	1.44054E-003	6	...........	-327.66
	710	142.2	-8.49948E-001	-1.43353E-008	0.00000E+000	-8.50000E-001	1.44046E-003	6	...........	-327.66
	711	142.4	-8.40014E-001	-1.25543E-008	0.00000E+000	-8.40000E-001	1.44307E-003	6	...........	-327.66
	712	142.6	-8.29801E-001	-1.07482E-008	0.00000E+000	-8.30000E-001	1.44899E-003	6	...........	-327.66
	713	142.8	-8.19992E-001	-8.80494E-009	0.00000E+000	-8.20000E-001	1.44172E-003	6	...........	-327.66
	714	143	-8.09898E-001	-6.63334E-009	0.00000E+000	-8.10000E-001	1.43969E-003	6	...........	-327.66
	715	143.2	-7.99974E-001	-4.24843E-009	0.00000E+000	-8.00000E-001	1.44052E-003	6	...........	-327.66
	716	143.4	-7.89938E-001	-1.40947E-009	0.00000E+000	-7.90000E-001	1.43421E-003	6	...........	-327.66
	717	143.6	-7.79978E-001	1.61791E-009	0.00000E+000	-7.80000E-001	1.45163E-003	6	...........	-327.66
	718	143.8	-7.69974E-001	5.06940E-009	0.00000E+000	-7.70000E-001	1.44886E-003	6	...........	-327.66
	719	144	-7.59979E-001	8.69035E-009	0.00000E+000	-7.60000E-001	1.44734E-003	6	...........	-327.66
	720	144.2	-7.49912E-001	1.26160E-008	0.00000E+000	-7.50000E-001	1.44281E-003	6	...........	-327.66
	721	144.4	-7.39989E-001	1.64990E-008	0.00000E+000	-7.40000E-001	1.44352E-003	6	...........	-327.66
	722	144.6	-7.29928E-001	2.03282E-008	0.00000E+000	-7.30000E-001	1.44894E-003	6	...........	-327.66
	723	144.8	-7.19989E-001	2.34822E-008	0.00000E+000	-7.20000E-001	1.43651E-003	6	...........	-327.66
	724	145	-7.09914E-001	2.58355E-008	0.00000E+000	-7.10000E-001	1.44368E-003	6	...........	-327.66
	725	145.2	-6.99968E-001	2.70465E-008	0.00000E+000	-7.00000E-001	1.44478E-003	6	...........	-327.66
	726	145.4	-6.89964E-001	2.76552E-008	0.00000E+000	-6.90000E-001	1.45308E-003	6	...........	-327.66
	727	145.6	-6.79935E-001	2.77678E-008	0.00000E+000	-6.80000E-001	1.44698E-003	6	...........	-327.66
	728	145.8	-6.69889E-001	2.77749E-008	0.00000E+000	-6.70000E-001	1.45008E-003	6	...........	-327.66
	729	146	-6.59970E-001	2.76157E-008	0.00000E+000	-6.60000E-001	1.44798E-003	6	...........	-327.66
	730	146.2	-6.49922E-001	2.76964E-008	0.00000E+000	-6.50000E-001	1.43774E-003	6	...........	-327.66
	731	146.4	-6.39996E-001	2.77662E-008	0.00000E+000	-6.40000E-001	1.43404E-003	6	...........	-327.66
	732	146.6	-6.29915E-001	2.79436E-008	0.00000E+000	-6.30000E-001	1.44601E-003	6	...........	-327.66
	733	146.8	-6.19989E-001	2.80038E-008	0.00000E+000	-6.20000E-001	1.45223E-003	6	...........	-327.66
	734	147	-6.10000E-001	2.81882E-008	0.00000E+000	-6.10000E-001	1.44839E-003	6	...........	-327.66
	735	147.2	-6.00018E-001	2.84817E-008	0.00000E+000	-6.00000E-001	1.45319E-003	6	...........	-327.66
	736	147.4	-5.89970E-001	2.87402E-008	0.00000E+000	-5.90000E-001	1.44549E-003	6	...........	-327.66
	737	147.6	-5.79934E-001	2.89231E-008	0.00000E+000	-5.80000E-001	1.44644E-003	6	...........	-327.66
	738	147.8	-5.69983E-001	2.91754E-008	0.00000E+000	-5.70000E-001	1.44369E-003	6	...........	-327.66
	739	148	-5.60024E-001	2.95237E-008	0.00000E+000	-5.60000E-001	1.43340E-003	6	...........	-327.66
	740	148.2	-5.49905E-001	2.98361E-008	0.00000E+000	-5.50000E-001	1.44074E-003	6	...........	-327.66
	741	148.4	-5.40007E-001	3.01589E-008	0.00000E+000	-5.40000E-001	1.44386E-003	6	...........	-327.66
	742	148.6	-5.29984E-001	3.05698E-008	0.00000E+000	-5.30000E-001	1.45188E-003	6	...........	-327.66
	743	148.8	-5.20038E-001	3.09661E-008	0.00000E+000	-5.20000E-001	1.44963E-003	6	...........	-327.66
	744	149	-5.09969E-001	3.14924E-008	0.00000E+000	-5.10000E-001	1.44824E-003	6	...........	-327.66
	745	149.2	-4.99923E-001	3.18385E-008	0.00000E+000	-5.00000E-001	1.45328E-003	6	...........	-327.66
	746	149.4	-4.89996E-001	3.23733E-008	0.00000E+000	-4.90000E-001	1.44811E-003	6	...........	-327.66
	747	149.6	-4.80002E-001	3.28040E-008	0.00000E+000	-4.80000E-001	1.43764E-003	6	...........	-327.66
	748	149.8	-4.69885E-001	3.34104E-008	0.00000E+000	-4.70000E-001	1.44964E-003	6	...........	-327.66
	749	150	-4.60003E-001	3.39084E-008	0.00000E+000	-4.60000E-001	1.44368E-003	6	...........	-327.66
	750	150.2	-4.49961E-001	3.46533E-008	0.00000E+000	-4.50000E-001	1.45148E-003	6	...........	-327.66
	751	150.4	-4.40011E-001	3.51692E-008	0.00000E+000	-4.40000E-001	1.44129E-003	6	...........	-327.66
	752	150.6	-4.30000E-001	3.57027E-008	0.00000E+000	-4.30000E-001	1.44866E-003	6	...........	-327.66
	753	150.8	-4.19999E-001	3.62606E-008	0.00000E+000	-4.20000E-001	1.44254E-003	6	...........	-327.66
	754	151	-4.10005E-001	3.69030E-008	0.00000E+000	-4.10000E-001	1.44686E-003	6	...........	-327.66
	755	151.2	-4.00000E-001	3.74912E-008	0.00000E+000	-4.00000E-001	1.43769E-003	6	...........	-327.66
	756	151.4	-3.89953E-001	3.81138E-008	0.00000E+000	-3.90000E-001	1.44322E-003	6	...........	-327.66
	757	151.6	-3.80010E-001	3.86240E-008	0.00000E+000	-3.80000E-001	1.45341E-003	6	...........	-327.66
	758	151.8	-3.69927E-001	3.93174E-008	0.00000E+000	-3.70000E-001	1.45033E-003	6	...........	-327.66
	759	152	-3.60018E-001	3.98380E-008	0.00000E+000	-3.60000E-001	1.45738E-003	6	...........	-327.66
	760	152.2	-3.50004E-001	4.05175E-008	0.00000E+000	-3.50000E-001	1.44479E-003	6	...........	-327.66
	761	152.4	-3.40016E-001	4.09556E-008	0.00000E+000	-3.40000E-001	1.44793E-003	6	...........	-327.66
	762	152.6	-3.30016E-001	4.15891E-008	0.00000E+000	-3.30000E-001	1.44469E-003	6	...........	-327.66
	763	152.8	-3.20018E-001	4.21304E-008	0.00000E+000	-3.20000E-001	1.44761E-003	6	...........	-327.66
	764	153	-3.10000E-001	4.27290E-008	0.00000E+000	-3.10000E-001	1.44494E-003	6	...........	-327.66
	765	153.2	-3.00002E-001	4.31516E-008	0.00000E+000	-3.00000E-001	1.45038E-003	6	...........	-327.66
	766	153.4	-2.89974E-001	4.36655E-008	0.00000E+000	-2.90000E-001	1.45543E-003	6	...........	-327.66
	767	153.6	-2.80026E-001	4.41359E-008	0.00000E+000	-2.80000E-001	1.45014E-003	6	...........	-327.66
	768	153.8	-2.69960E-001	4.46491E-008	0.00000E+000	-2.70000E-001	1.45708E-003	6	...........	-327.66
	769	154	-2.60008E-001	4.49884E-008	0.00000E+000	-2.60000E-001	1.44401E-003	6	...........	-327.66
	770	154.2	-2.50016E-001	4.54117E-008	0.00000E+000	-2.50000E-001	1.45164E-003	6	...........	-327.66
	771	154.4	-2.40026E-001	4.58388E-008	0.00000E+000	-2.40000E-001	1.44801E-003	6	...........	-327.66
	772	154.6	-2.30001E-001	4.62846E-008	0.00000E+000	-2.30000E-001	1.44524E-003	6	...........	-327.66
	773	154.8	-2.19938E-001	4.66076E-008	0.00000E+000	-2.20000E-001	1.45241E-003	6	...........	-327.66
	774	155	-2.10005E-001	4.69622E-008	0.00000E+000	-2.10000E-001	1.45043E-003	6	...........	-327.66
	775	155.2	-2.00061E-001	4.71937E-008	0.00000E+000	-2.00000E-001	1.45276E-003	6	...........	-327.66
	776	155.4	-1.89936E-001	4.75286E-008	0.00000E+000	-1.90000E-001	1.44671E-003	6	...........	-327.66
	777	155.6	-1.80018E-001	4.78194E-008	0.00000E+000	-1.80000E-001	1.44339E-003	6	...........	-327.66
	778	155.8	-1.70023E-001	4.81157E-008	0.00000E+000	-1.70000E-001	1.45158E-003	6	...........	-327.66
	779	156	-1.60040E-001	4.82749E-008	0.00000E+000	-1.60000E-001	1.44738E-003	6	...........	-327.66
	780	156.2	-1.50036E-001	4.85983E-008	0.00000E+000	-1.50000E-001	1.44959E-003	6	...........	-327.66
	781	156.4	-1.40008E-001	4.88165E-008	0.00000E+000	-1.40000E-001	1.44834E-003	6	...........	-327.66
	782	156.6	-1.30027E-001	4.91757E-008	0.00000E+000	-1.30000E-001	1.45685E-003	6	...........	-327.66
	783	156.8	-1.20024E-001	4.93520E-008	0.00000E+000	-1.20000E-001	1.44719E-003	6	...........	-327.66
	784	157	-1.10004E-001	4.94646E-008	0.00000E+000	-1.10000E-001	1.44913E-003	6	...........	-327.66
	785	157.2	-1.00019E-001	4.95864E-008	0.00000E+000	-1.00000E-001	1.44478E-003	6	...........	-327.66
	786	157.4	-9.00107E-002	4.99931E-008	0.00000E+000	-9.00000E-002	1.43941E-003	6	...........	-327.66
	787	157.6	-8.00255E-002	5.01351E-008	0.00000E+000	-8.00000E-002	1.44207E-003	6	...........	-327.66
	788	157.8	-7.00096E-002	5.01851E-008	0.00000E+000	-7.00000E-002	1.45058E-003	6	...........	-327.66
	789	158	-6.00187E-002	5.02728E-008	0.00000E+000	-6.00000E-002	1.46190E-003	6	...........	-327.66
	790	158.2	-5.00386E-002	5.05108E-008	0.00000E+000	-5.00000E-002	1.44711E-003	6	...........	-327.66
	791	158.4	-3.99795E-002	5.08894E-008	0.00000E+000	-4.00000E-002	1.44896E-003	6	...........	-327.66
	792	158.6	-2.99892E-002	5.10503E-008	0.00000E+000	-3.00000E-002	1.44386E-003	6	...........	-327.66
	793	158.8	-2.00061E-002	5.09042E-008	0.00000E+000	-2.00000E-002	1.44036E-003	6	...........	-327.66
	794	159	-1.00169E-002	5.11379E-008	0.00000E+000	-1.00000E-002	1.43951E-003	6	...........	-327.66
	795	159.2	-2.83930E-005	5.13586E-008	0.00000E+000	-1.49012E-008	1.44032E-003	6	...........	-327.66
	796	159.4	1.00159E-002	5.15251E-008	0.00000E+000	9.99999E-003	1.45268E-003	6	...........	-327.66
	797	159.6	1.99928E-002	5.15241E-008	0.00000E+000	2.00000E-002	1.44378E-003	6	...........	-327.66
	798	159.8	2.99945E-002	5.15866E-008	0.00000E+000	3.00000E-002	1.45396E-003	6	...........	-327.66
	799	160	3.97814E-002	5.17793E-008	0.00000E+000	4.00000E-002	1.45686E-003	6	...........	-327.66
	800	160.2	5.00220E-002	5.19925E-008	0.00000E+000	5.00000E-002	1.44858E-003	6	...........	-327.66
	801	160.4	6.00019E-002	5.20316E-008	0.00000E+000	6.00000E-002	1.44599E-003	6	...........	-327.66
	802	160.6	7.00033E-002	5.22075E-008	0.00000E+000	7.00000E-002	1.44714E-003	6	...........	-327.66
	803	160.8	7.99725E-002	5.24209E-008	0.00000E+000	8.00000E-002	1.44021E-003	6	...........	-327.66
	804	161	9.00881E-002	5.26229E-008	0.00000E+000	9.00000E-002	1.44157E-003	6	...........	-327.66
	805	161.2	9.99853E-002	5.27296E-008	0.00000E+000	1.00000E-001	1.44779E-003	6	...........	-327.66
	806	161.4	1.09992E-001	5.30092E-008	0.00000E+000	1.10000E-001	1.44883E-003	6	...........	-327.66
	807	161.6	1.19992E-001	5.32059E-008	0.00000E+000	1.20000E-001	1.44806E-003	6	...........	-327.66
	808	161.8	1.30011E-001	5.35595E-008	0.00000E+000	1.30000E-001	1.44744E-003	6	...........	-327.66
	809	162	1.40039E-001	5.36853E-008	0.00000E+000	1.40000E-001	1.44714E-003	6	...........	-327.66
	810	162.2	1.50011E-001	5.39640E-008	0.00000E+000	1.50000E-001	1.44589E-003	6	...........	-327.66
	811	162.4	1.59979E-001	5.41802E-008	0.00000E+000	1.60000E-001	1.44037E-003	6	...........	-327.66
	812	162.6	1.70064E-001	5.44947E-008	0.00000E+000	1.70000E-001	1.44563E-003	6	...........	-327.66
	813	162.8	1.79985E-001	5.46159E-008	0.00000E+000	1.80000E-001	1.44064E-003	6	...........	-327.66
	814	163	1.89990E-001	5.48507E-008	0.00000E+000	1.90000E-001	1.45558E-003	6	...........	-327.66
	815	163.2	1.99980E-001	5.50675E-008	0.00000E+000	2.00000E-001	1.44796E-003	6	...........	-327.66
	816	163.4	2.09974E-001	5.52875E-008	0.00000E+000	2.10000E-001	1.44473E-003	6	...........	-327.66
	817	163.6	2.19932E-001	5.54194E-008	0.00000E+000	2.20000E-001	1.44641E-003	6	...........	-327.66
	818	163.8	2.29990E-001	5.56307E-008	0.00000E+000	2.30000E-001	1.44696E-003	6	...........	-327.66
	819	164	2.39960E-001	5.58740E-008	0.00000E+000	2.40000E-001	1.44197E-003	6	...........	-327.66
	820	164.2	2.50002E-001	5.60866E-008	0.00000E+000	2.50000E-001	1.43914E-003	6	...........	-327.66
	821	164.4	2.59970E-001	5.62162E-008	0.00000E+000	2.60000E-001	1.44943E-003	6	...........	-327.66
	822	164.6	2.69996E-001	5.65584E-008	0.00000E+000	2.70000E-001	1.44924E-003	6	...........	-327.66
	823	164.8	2.79959E-001	5.67096E-008	0.00000E+000	2.80000E-001	1.45129E-003	6	...........	-327.66
	824	165	2.89965E-001	5.70297E-008	0.00000E+000	2.90000E-001	1.44714E-003	6	...........	-327.66
	825	165.2	2.99974E-001	5.71520E-008	0.00000E+000	3.00000E-001	1.45066E-003	6	...........	-327.66
	826	165.4	3.09979E-001	5.74575E-008	0.00000E+000	3.10000E-001	1.43802E-003	6	...........	-327.66
	827	165.6	3.19970E-001	5.77235E-008	0.00000E+000	3.20000E-001	1.43814E-003	6	...........	-327.66
	828	165.8	3.29989E-001	5.80592E-008	0.00000E+000	3.30000E-001	1.43714E-003	6	...........	-327.66
	829	166	3.39978E-001	5.82909E-008	0.00000E+000	3.40000E-001	1.44591E-003	6	...........	-327.66
	830	166.2	3.50010E-001	5.86134E-008	0.00000E+000	3.50000E-001	1.45024E-003	6	...........	-327.66
	831	166.4	3.59932E-001	5.89486E-008	0.00000E+000	3.60000E-001	1.44494E-003	6	...........	-327.66
	832	166.6	3.69972E-001	5.93245E-008	0.00000E+000	3.70000E-001	1.44681E-003	6	...........	-327.66
	833	166.8	3.79978E-001	5.96150E-008	0.00000E+000	3.80000E-001	1.43986E-003	6	...........	-327.66
	834	167	3.89968E-001	5.99294E-008	0.00000E+000	3.90000E-001	1.44052E-003	6	...........	-327.66
	835	167.2	3.99946E-001	6.03326E-008	0.00000E+000	4.00000E-001	1.44524E-003	6	...........	-327.66
	836	167.4	4.09964E-001	6.06956E-008	0.00000E+000	4.10000E-001	1.43777E-003	6	...........	-327.66
	837	167.6	4.19980E-001	6.10269E-008	0.00000E+000	4.20000E-001	1.44564E-003	6	...........	-327.66
	838	167.8	4.29979E-001	6.14534E-008	0.00000E+000	4.30000E-001	1.44576E-003	6	...........	-327.66
	839	168	4.39938E-001	6.18799E-008	0.00000E+000	4.40000E-001	1.45149E-003	6	...........	-327.66
	840	168.2	4.49988E-001	6.23486E-008	0.00000E+000	4.50000E-001	1.44723E-003	6	...........	-327.66
	841	168.4	4.59973E-001	6.27415E-008	0.00000E+000	4.60000E-001	1.44749E-003	6	...........	-327.66
	842	168.6	4.69945E-001	6.32821E-008	0.00000E+000	4.70000E-001	1.44744E-003	6	...........	-327.66
	843	168.8	4.79948E-001	6.37072E-008	0.00000E+000	4.80000E-001	1.44619E-003	6	...........	-327.66
	844	169	4.89954E-001	6.42818E-008	0.00000E+000	4.90000E-001	1.44276E-003	6	...........	-327.66
	845	169.2	4.99984E-001	6.47881E-008	0.00000E+000	5.00000E-001	1.45061E-003	6	...........	-327.66
	846	169.4	5.09963E-001	6.53568E-008	0.00000E+000	5.10000E-001	1.45441E-003	6	...........	-327.66
	847	169.6	5.19949E-001	6.59731E-008	0.00000E+000	5.20000E-001	1.44979E-003	6	...........	-327.66
	848	169.8	5.29989E-001	6.66384E-008	0.00000E+000	5.30000E-001	1.44428E-003	6	...........	-327.66
	849	170	5.39975E-001	6.72789E-008	0.00000E+000	5.40000E-001	1.43714E-003	6	...........	-327.66
	850	170.2	5.49964E-001	6.80747E-008	0.00000E+000	5.50000E-001	1.44686E-003	6	...........	-327.66
	851	170.4	5.59960E-001	6.90013E-008	0.00000E+000	5.60000E-001	1.43854E-003	6	...........	-327.66
	852	170.6	5.69962E-001	6.99553E-008	0.00000E+000	5.70000E-001	1.44372E-003	6	...........	-327.66
	853	170.8	5.79974E-001	7.09475E-008	0.00000E+000	5.80000E-001	1.45228E-003	6	...........	-327.66
	854	171	5.89961E-001	7.21339E-008	0.00000E+000	5.90000E-001	1.45395E-003	6	...........	-327.66
	855	171.2	5.99955E-001	7.33930E-008	0.00000E+000	6.00000E-001	1.45193E-003	6	...........	-327.66
CURVE4	TABLE
	Pt	T	Vf	Im	Vu	Sig	Ach	IERange	Over	Temp
	#	s	V vs. Ref.	A	V	V	V	#	bits	deg C
	856	171.4	5.89985E-001	-5.48038E-009	0.00000E+000	5.90000E-001	1.44187E-003	6	...........	-327.66
	857	171.6	5.79996E-001	-1.29279E-008	0.00000E+000	5.80000E-001	1.45428E-003	6	...........	-327.66
	858	171.8	5.69989E-001	-1.73625E-008	0.00000E+000	5.70000E-001	1.44586E-003	6	...........	-327.66
	859	172	5.59959E-001	-2.06385E-008	0.00000E+000	5.60000E-001	1.44484E-003	6	...........	-327.66
	860	172.2	5.49989E-001	-2.30433E-008	0.00000E+000	5.50000E-001	1.45516E-003	6	...........	-327.66
	861	172.4	5.39995E-001	-2.49128E-008	0.00000E+000	5.40000E-001	1.45063E-003	6	...........	-327.66
	862	172.6	5.30017E-001	-2.63020E-008	0.00000E+000	5.30000E-001	1.44828E-003	6	...........	-327.66
	863	172.8	5.19979E-001	-2.74668E-008	0.00000E+000	5.20000E-001	1.45738E-003	6	...........	-327.66
	864	173	5.09976E-001	-2.84550E-008	0.00000E+000	5.10000E-001	1.45821E-003	6	...........	-327.66
	865	173.2	5.00008E-001	-2.92932E-008	0.00000E+000	5.00000E-001	1.45221E-003	6	...........	-327.66
	866	173.4	4.89976E-001	-3.00232E-008	0.00000E+000	4.90000E-001	1.44853E-003	6	...........	-327.66
	867	173.6	4.79962E-001	-3.06793E-008	0.00000E+000	4.80000E-001	1.44076E-003	6	...........	-327.66
	868	173.8	4.69973E-001	-3.11745E-008	0.00000E+000	4.70000E-001	1.44262E-003	6	...........	-327.66
	869	174	4.59995E-001	-3.17455E-008	0.00000E+000	4.60000E-001	1.45014E-003	6	...........	-327.66
	870	174.2	4.50032E-001	-3.21288E-008	0.00000E+000	4.50000E-001	1.43842E-003	6	...........	-327.66
	871	174.4	4.39945E-001	-3.26377E-008	0.00000E+000	4.40000E-001	1.44844E-003	6	...........	-327.66
	872	174.6	4.29993E-001	-3.29635E-008	0.00000E+000	4.30000E-001	1.44748E-003	6	...........	-327.66
	873	174.8	4.20038E-001	-3.33512E-008	0.00000E+000	4.20000E-001	1.45291E-003	6	...........	-327.66
	874	175	4.09982E-001	-3.36304E-008	0.00000E+000	4.10000E-001	1.43454E-003	6	...........	-327.66
	875	175.2	3.99971E-001	-3.39719E-008	0.00000E+000	4.00000E-001	1.43959E-003	6	...........	-327.66
	876	175.4	3.89991E-001	-3.42989E-008	0.00000E+000	3.90000E-001	1.44668E-003	6	...........	-327.66
	877	175.6	3.79998E-001	-3.45760E-008	0.00000E+000	3.80000E-001	1.44543E-003	6	...........	-327.66
	878	175.8	3.70030E-001	-3.47861E-008	0.00000E+000	3.70000E-001	1.46248E-003	6	...........	-327.66
	879	176	3.59955E-001	-3.51075E-008	0.00000E+000	3.60000E-001	1.45446E-003	6	...........	-327.66
	880	176.2	3.50024E-001	-3.53490E-008	0.00000E+000	3.50000E-001	1.45136E-003	6	...........	-327.66
	881	176.4	3.40011E-001	-3.56203E-008	0.00000E+000	3.40000E-001	1.45236E-003	6	...........	-327.66
	882	176.6	3.30021E-001	-3.57746E-008	0.00000E+000	3.30000E-001	1.45134E-003	6	...........	-327.66
	883	176.8	3.19988E-001	-3.60360E-008	0.00000E+000	3.20000E-001	1.44431E-003	6	...........	-327.66
	884	177	3.09993E-001	-3.62505E-008	0.00000E+000	3.10000E-001	1.44152E-003	6	...........	-327.66
	885	177.2	2.99999E-001	-3.65105E-008	0.00000E+000	3.00000E-001	1.45169E-003	6	...........	-327.66
	886	177.4	2.90006E-001	-3.66091E-008	0.00000E+000	2.90000E-001	1.44839E-003	6	...........	-327.66
	887	177.6	2.79981E-001	-3.68534E-008	0.00000E+000	2.80000E-001	1.45405E-003	6	...........	-327.66
	888	177.8	2.70092E-001	-3.70064E-008	0.00000E+000	2.70000E-001	1.45008E-003	6	...........	-327.66
	889	178	2.60005E-001	-3.72612E-008	0.00000E+000	2.60000E-001	1.44864E-003	6	...........	-327.66
	890	178.2	2.50047E-001	-3.73233E-008	0.00000E+000	2.50000E-001	1.44681E-003	6	...........	-327.66
	891	178.4	2.40005E-001	-3.76074E-008	0.00000E+000	2.40000E-001	1.44004E-003	6	...........	-327.66
	892	178.6	2.30003E-001	-3.77579E-008	0.00000E+000	2.30000E-001	1.45314E-003	6	...........	-327.66
	893	178.8	2.20004E-001	-3.79817E-008	0.00000E+000	2.20000E-001	1.44261E-003	6	...........	-327.66
	894	179	2.10005E-001	-3.81099E-008	0.00000E+000	2.10000E-001	1.45858E-003	6	...........	-327.66
	895	179.2	2.00001E-001	-3.82960E-008	0.00000E+000	2.00000E-001	1.44661E-003	6	...........	-327.66
	896	179.4	1.90050E-001	-3.84150E-008	0.00000E+000	1.90000E-001	1.45138E-003	6	...........	-327.66
	897	179.6	1.80016E-001	-3.86333E-008	0.00000E+000	1.80000E-001	1.45133E-003	6	...........	-327.66
	898	179.8	1.70101E-001	-3.87733E-008	0.00000E+000	1.70000E-001	1.45183E-003	6	...........	-327.66
	899	180	1.60012E-001	-3.89868E-008	0.00000E+000	1.60000E-001	1.44888E-003	6	...........	-327.66
	900	180.2	1.50031E-001	-3.91633E-008	0.00000E+000	1.50000E-001	1.44332E-003	6	...........	-327.66