File: Test_Data_Files/20250424_J_CHI105_12,5umAu_E000_PBSarg_CV50.DTA
EXPLAIN
TAG	CV
TITLE	LABEL	Cyclic Voltammetry	Test &Identifier
DATE	LABEL	4/24/2025	Date
TIME	LABEL	13:16:19	Time
NOTES	NOTES	3	&Notes...

PSTAT	PSTAT	IFC1010-32247	Potentiostat
VINIT	POTEN	0.00000E+000	T	Initial &E (V)
VLIMIT1	POTEN	-6.00000E-001	F	Scan Limit &1 (V)
VLIMIT2	POTEN	8.00000E-001	F	Scan Limit &2 (V)
VFINAL	POTEN	0.00000E+000	T	Final &E (V)
SCANRATE	QUANT	4.99999E+001	&Scan Rate (mV/s)
STEPSIZE	QUANT	1.00000E+001	St&ep Size (mV)
CYCLES	IQUANT	2	C&ycles (#)
IMODE	SELECTOR	0	I/E Range &Mode
IRANGE	QUANT	1.00000E-004	&Max Current (mA)
AREA	QUANT	1.00000E+000	Electrode &Area (cm^2)
ELECTRODETYPE	SELECTOR	0	Electrode Type
STRIPPING	TOGGLE	F	Used for Stripping
CONDIT	TWOPARAM	F	1.50000E+001	0.00000E+000	Conditionin&g	Time(s)	E(V)
DELAY	TWOPARAM	T	1.50000E+001	0.00000E+000	Init. De&lay	Time(s)	Stab.(mV/s)
EQDELAY	QUANT	0.00000E+000	Equil. &Time (s)
IRCOMP	SELECTOR	0	IRCom&p
PFCOR	QUANT	5.00000E+001	PF Corr. (ohm)
SAMPLINGMODE	SELECTOR	2	Sampling &Mode
OCVCURVE	TABLE	58
	Pt	T	Vf	Vm	Ach	Over	Temp
	#	s	V vs. Ref.	V	V	bits	deg C
	0	0.258333	8.62320E-001	8.62320E-001	0.00000E+000	...........	1367.57
	1	0.516667	8.62338E-001	8.63217E-001	0.00000E+000	...........	1367.57
	2	0.775	8.62441E-001	8.63983E-001	0.00000E+000	...........	1367.57
	3	1.03333	8.62729E-001	8.64726E-001	0.00000E+000	...........	1367.48
	4	1.29167	8.63236E-001	8.65543E-001	0.00000E+000	...........	1367.48
	5	1.55	8.63910E-001	8.66348E-001	0.00000E+000	...........	1367.48
	6	1.80833	8.64670E-001	8.67042E-001	0.00000E+000	...........	1367.48
	7	2.06667	8.65456E-001	8.67766E-001	0.00000E+000	...........	1367.57
	8	2.325	8.66229E-001	8.68425E-001	0.00000E+000	...........	1367.57
	9	2.58333	8.66972E-001	8.69113E-001	0.00000E+000	...........	1367.57
	10	2.84167	8.67686E-001	8.69786E-001	0.00000E+000	...........	1367.57
	11	3.1	8.68376E-001	8.70326E-001	0.00000E+000	...........	1367.57
	12	3.35833	8.69041E-001	8.70891E-001	0.00000E+000	...........	1367.57
	13	3.61667	8.69674E-001	8.71435E-001	0.00000E+000	...........	1367.57
	14	3.875	8.70269E-001	8.71900E-001	0.00000E+000	...........	1367.57
	15	4.13333	8.70829E-001	8.72338E-001	0.00000E+000	...........	1367.57
	16	4.39167	8.71354E-001	8.72870E-001	0.00000E+000	...........	1367.57
	17	4.65	8.71852E-001	8.73365E-001	0.00000E+000	...........	1367.57
	18	4.90833	8.72342E-001	8.73992E-001	0.00000E+000	...........	1367.57
	19	5.16667	8.72846E-001	8.74540E-001	0.00000E+000	...........	1367.48
	20	5.425	8.73376E-001	8.75064E-001	0.00000E+000	...........	1367.48
	21	5.68333	8.73925E-001	8.75647E-001	0.00000E+000	...........	1367.48
	22	5.94167	8.74479E-001	8.76102E-001	0.00000E+000	...........	1367.36
	23	6.2	8.75025E-001	8.76567E-001	0.00000E+000	...........	1367.22
	24	6.45833	8.75551E-001	8.77000E-001	0.00000E+000	...........	1367.22
	25	6.71667	8.76046E-001	8.77396E-001	0.00000E+000	...........	1367.22
	26	6.975	8.76509E-001	8.77744E-001	0.00000E+000	...........	1367.48
	27	7.23333	8.76941E-001	8.78173E-001	0.00000E+000	...........	1367.48
	28	7.49167	8.77348E-001	8.78562E-001	0.00000E+000	...........	1367.48
	29	7.75	8.77744E-001	8.78980E-001	0.00000E+000	...........	1367.48
	30	8.00833	8.78137E-001	8.79227E-001	0.00000E+000	...........	1367.57
	31	8.26667	8.78522E-001	8.79663E-001	0.00000E+000	...........	1367.57
	32	8.525	8.78892E-001	8.79922E-001	0.00000E+000	...........	1367.57
	33	8.78333	8.79245E-001	8.80219E-001	0.00000E+000	...........	1367.57
	34	9.04167	8.79581E-001	8.80581E-001	0.00000E+000	...........	1367.57
	35	9.3	8.79905E-001	8.80928E-001	0.00000E+000	...........	1367.57
	36	9.5583	8.80227E-001	8.81238E-001	0.00000E+000	...........	1367.57
	37	9.8167	8.80553E-001	8.81467E-001	0.00000E+000	...........	1367.57
	38	10.075	8.80872E-001	8.81721E-001	0.00000E+000	...........	1367.57
	39	10.3333	8.81168E-001	8.81813E-001	0.00000E+000	...........	1367.57
	40	10.5917	8.81426E-001	8.82015E-001	0.00000E+000	...........	1367.57
	41	10.85	8.81643E-001	8.82183E-001	0.00000E+000	...........	1367.57
	42	11.1083	8.81830E-001	8.82406E-001	0.00000E+000	...........	1367.57
	43	11.3667	8.82010E-001	8.82673E-001	0.00000E+000	...........	1367.57
	44	11.625	8.82205E-001	8.83073E-001	0.00000E+000	...........	1367.57
	45	11.8833	8.82437E-001	8.83454E-001	0.00000E+000	...........	1367.57
	46	12.1417	8.82719E-001	8.83693E-001	0.00000E+000	...........	1367.57
	47	12.4	8.83035E-001	8.83909E-001	0.00000E+000	...........	1367.57
	48	12.6583	8.83352E-001	8.84247E-001	0.00000E+000	...........	1367.57
	49	12.9167	8.83651E-001	8.84581E-001	0.00000E+000	...........	1367.57
	50	13.175	8.83941E-001	8.84874E-001	0.00000E+000	...........	1367.57
	51	13.4333	8.84236E-001	8.85123E-001	0.00000E+000	...........	1367.57
	52	13.6917	8.84537E-001	8.85541E-001	0.00000E+000	...........	1367.57
	53	13.95	8.84846E-001	8.86014E-001	0.00000E+000	...........	1367.30
	54	14.2083	8.85179E-001	8.86330E-001	0.00000E+000	...........	1367.14
	55	14.4667	8.85543E-001	8.86740E-001	0.00000E+000	...........	1367.14
	56	14.725	8.85926E-001	8.87015E-001	0.00000E+000	...........	1367.14
	57	14.9833	8.86301E-001	8.87217E-001	0.00000E+000	...........	1367.48
EOC	QUANT	0.8863007	Open Circuit (V)
PSTATMODEL	IQUANT	64	Pstat Model
PSTATSECTION	LABEL	IFC1010-32247	Pstat Section
PSTATSERIALNO	LABEL	32247	Pstat Serial Number
CTRLMODE	IQUANT	1	Control Mode
ELECTROMETER	IQUANT	0	RE=0 or CS=1
IESTAB	IQUANT	2	I/E Stability
CASPEED	IQUANT	4	Control Amp Speed
CONVENTION	IQUANT	1	Current Convention
ICHRANGE	IQUANT	2	Ich Range
ICHRANGEMODE	TOGGLE	F	Ich Auto Range
ICHOFFSETENABLE	TOGGLE	F	Ich Offset Enable
ICHOFFSET	QUANT	0	Ich Offset (V)
ICHFILTER	IQUANT	3	Ich Filter
VCHRANGE	IQUANT	2	Vch Range
VCHRANGEMODE	TOGGLE	F	Vch Auto Range
VCHOFFSETENABLE	TOGGLE	F	Vch Offset Enable
VCHOFFSET	QUANT	0	Vch Offset (V)
VCHFILTER	IQUANT	3	Vch Filter
IERANGELOWERLIMIT	IQUANT	4	I/E Range Lower Limit
IERANGEMODE	TOGGLE	T	I/E AutoRange
IERANGE	IQUANT	6	I/E Range
ACHSELECT	IQUANT	0	Ach Select
ACHRANGE	IQUANT	2	Ach Range
ACHOFFSETENABLE	TOGGLE	F	Ach Offset Enable
ACHOFFSET	QUANT	0	Ach Offset (V)
ACHFILTER	IQUANT	1	Ach Filter
SENSECABLEID	IQUANT	14	Sense Cable ID
PWRCABLEID	IQUANT	14	Power Cable ID
DCCALDATE	LABEL	11/18/2024	DC Calibration Date
ACCALDATE	LABEL	4/18/2022	AC Calibration Date
FRAMEWORKVERSION	LABEL	7.10.3	Framework Version
INSTRUMENTVERSION	LABEL	4.91	Instrument Version
COMMVERSION	LABEL	3.10	Communications Version
CPUPLDVERSION	LABEL	2.22	CPU PLD Version
CTRLPLDVERSION	LABEL	0.00	CTRL PLD Version
PSTATPLDVERSION	LABEL	0.00	PSTAT PLD Version
CURVE1	TABLE
	Pt	T	Vf	Im	Vu	Sig	Ach	IERange	Over	Temp
	#	s	V vs. Ref.	A	V	V	V	#	bits	deg C
	0	0.2	8.86395E-001	-9.23047E-011	0.00000E+000	8.86322E-001	0.00000E+000	6	...........	1367.57
	1	0.4	8.76406E-001	-3.43614E-012	0.00000E+000	8.76324E-001	0.00000E+000	5	......s....	1367.57
	2	0.6	8.66342E-001	-1.33709E-011	0.00000E+000	8.66277E-001	0.00000E+000	5	...........	1367.57
	3	0.8	8.56335E-001	-1.51961E-011	0.00000E+000	8.56279E-001	0.00000E+000	5	...........	1367.57
	4	1	8.46360E-001	-1.71012E-011	0.00000E+000	8.46282E-001	0.00000E+000	5	...........	1367.15
	5	1.2	8.36357E-001	-1.97525E-011	0.00000E+000	8.36284E-001	0.00000E+000	5	...........	1367.05
	6	1.4	8.26360E-001	-2.16665E-011	0.00000E+000	8.26287E-001	0.00000E+000	5	...........	1367.05
	7	1.6	8.16362E-001	-2.24303E-011	0.00000E+000	8.16290E-001	0.00000E+000	5	...........	1367.05
	8	1.8	8.06384E-001	-2.41888E-011	0.00000E+000	8.06292E-001	0.00000E+000	5	...........	1367.05
	9	2	7.96368E-001	-2.56786E-011	0.00000E+000	7.96295E-001	0.00000E+000	5	...........	1366.84
	10	2.2	7.86362E-001	-2.70746E-011	0.00000E+000	7.86297E-001	0.00000E+000	5	...........	1366.79
	11	2.4	7.76363E-001	-2.91098E-011	0.00000E+000	7.76300E-001	0.00000E+000	5	...........	1366.79
	12	2.6	7.66352E-001	-3.07098E-011	0.00000E+000	7.66302E-001	0.00000E+000	5	...........	1366.79
	13	2.8	7.56384E-001	-3.18538E-011	0.00000E+000	7.56305E-001	0.00000E+000	5	...........	1366.79
	14	3	7.46392E-001	-3.30807E-011	0.00000E+000	7.46307E-001	0.00000E+000	5	...........	1366.93
	15	3.2	7.36404E-001	-3.50339E-011	0.00000E+000	7.36310E-001	0.00000E+000	5	...........	1366.97
	16	3.4	7.26404E-001	-3.75075E-011	0.00000E+000	7.26313E-001	0.00000E+000	5	...........	1366.97
	17	3.6	7.16377E-001	-3.90196E-011	0.00000E+000	7.16315E-001	0.00000E+000	5	...........	1366.97
	18	3.8	7.06391E-001	-4.08726E-011	0.00000E+000	7.06318E-001	0.00000E+000	5	...........	1366.97
	19	4	6.96393E-001	-4.28291E-011	0.00000E+000	6.96320E-001	0.00000E+000	5	...........	1366.97
	20	4.2	6.86386E-001	-4.43134E-011	0.00000E+000	6.86323E-001	0.00000E+000	5	...........	1366.97
	21	4.4	6.76389E-001	-4.61697E-011	0.00000E+000	6.76325E-001	0.00000E+000	5	...........	1366.97
	22	4.6	6.66350E-001	-4.85746E-011	0.00000E+000	6.66278E-001	0.00000E+000	5	...........	1366.97
	23	4.8	6.56330E-001	-5.13317E-011	0.00000E+000	6.56281E-001	0.00000E+000	5	...........	1366.97
	24	5	6.46362E-001	-5.49719E-011	0.00000E+000	6.46283E-001	0.00000E+000	5	...........	1366.62
	25	5.2	6.36337E-001	-5.83261E-011	0.00000E+000	6.36286E-001	0.00000E+000	5	...........	1366.54
	26	5.4	6.26348E-001	-6.25290E-011	0.00000E+000	6.26288E-001	0.00000E+000	5	...........	1366.54
	27	5.6	6.16362E-001	-6.68008E-011	0.00000E+000	6.16291E-001	0.00000E+000	5	...........	1366.54
	28	5.8	6.06343E-001	-7.28907E-011	0.00000E+000	6.06293E-001	0.00000E+000	5	...........	1366.54
	29	6	5.96344E-001	-8.00459E-011	0.00000E+000	5.96296E-001	0.00000E+000	5	...........	1366.88
	30	6.2	5.86356E-001	-8.91106E-011	0.00000E+000	5.86298E-001	0.00000E+000	5	...........	1366.97
	31	6.4	5.76379E-001	-1.00444E-010	0.00000E+000	5.76301E-001	0.00000E+000	5	...........	1366.97
	32	6.6	5.66382E-001	-1.14594E-010	0.00000E+000	5.66304E-001	0.00000E+000	5	...........	1366.97
	33	6.8	5.56369E-001	-1.32911E-010	0.00000E+000	5.56306E-001	0.00000E+000	5	...........	1366.97
	34	7	5.46378E-001	-1.57194E-010	0.00000E+000	5.46309E-001	0.00000E+000	5	...........	1366.97
	35	7.2	5.36368E-001	-1.91776E-010	0.00000E+000	5.36311E-001	0.00000E+000	5	...........	1366.97
	36	7.4	5.26375E-001	-2.37088E-010	0.00000E+000	5.26314E-001	0.00000E+000	5	...........	1366.97
	37	7.6	5.16385E-001	-3.00088E-010	0.00000E+000	5.16316E-001	0.00000E+000	5	...........	1366.97
	38	7.8	5.06375E-001	-3.88530E-010	0.00000E+000	5.06319E-001	0.00000E+000	5	...........	1366.97
	39	8	4.96370E-001	-5.14887E-010	0.00000E+000	4.96321E-001	0.00000E+000	5	...........	1366.97
	40	8.2	4.86386E-001	-6.85874E-010	0.00000E+000	4.86324E-001	0.00000E+000	5	...........	1366.97
	41	8.4	4.76315E-001	-9.05734E-010	0.00000E+000	4.76277E-001	0.00000E+000	5	...........	1366.97
	42	8.6	4.66319E-001	-1.14367E-009	0.00000E+000	4.66279E-001	0.00000E+000	5	...........	1366.97
	43	8.8	4.56322E-001	-1.33784E-009	0.00000E+000	4.56282E-001	0.00000E+000	5	...........	1366.97
	44	9	4.46327E-001	-1.42271E-009	0.00000E+000	4.46284E-001	0.00000E+000	5	...........	1366.97
	45	9.2	4.36343E-001	-1.39868E-009	0.00000E+000	4.36287E-001	0.00000E+000	5	...........	1366.97
	46	9.4	4.26331E-001	-1.34456E-009	0.00000E+000	4.26289E-001	0.00000E+000	5	...........	1366.97
	47	9.6	4.16340E-001	-1.32501E-009	0.00000E+000	4.16292E-001	0.00000E+000	5	...........	1366.97
	48	9.8	4.06340E-001	-1.33602E-009	0.00000E+000	4.06295E-001	0.00000E+000	5	...........	1366.97
	49	10	3.96345E-001	-1.33006E-009	0.00000E+000	3.96297E-001	0.00000E+000	5	...........	1366.97
	50	10.2	3.86348E-001	-1.26931E-009	0.00000E+000	3.86300E-001	0.00000E+000	5	...........	1366.97
	51	10.4	3.76325E-001	-1.14541E-009	0.00000E+000	3.76302E-001	0.00000E+000	5	...........	1366.97
	52	10.6	3.66341E-001	-9.75294E-010	0.00000E+000	3.66305E-001	0.00000E+000	5	...........	1366.97
	53	10.8	3.56331E-001	-7.91903E-010	0.00000E+000	3.56307E-001	0.00000E+000	5	...........	1366.97
	54	11	3.46352E-001	-6.28268E-010	0.00000E+000	3.46310E-001	0.00000E+000	5	...........	1366.97
	55	11.2	3.36356E-001	-5.01155E-010	0.00000E+000	3.36312E-001	0.00000E+000	5	...........	1366.97
	56	11.4	3.26346E-001	-4.11232E-010	0.00000E+000	3.26315E-001	0.00000E+000	5	...........	1366.97
	57	11.6	3.16355E-001	-3.50236E-010	0.00000E+000	3.16318E-001	0.00000E+000	5	...........	1366.97
	58	11.8	3.06341E-001	-3.08511E-010	0.00000E+000	3.06320E-001	0.00000E+000	5	...........	1366.97
	59	12	2.96357E-001	-2.80058E-010	0.00000E+000	2.96323E-001	0.00000E+000	5	...........	1366.97
	60	12.2	2.86338E-001	-2.57338E-010	0.00000E+000	2.86325E-001	0.00000E+000	5	...........	1366.97
	61	12.4	2.76296E-001	-2.39326E-010	0.00000E+000	2.76278E-001	0.00000E+000	5	...........	1366.97
	62	12.6	2.66294E-001	-2.23478E-010	0.00000E+000	2.66280E-001	0.00000E+000	5	...........	1366.97
	63	12.8	2.56318E-001	-2.09090E-010	0.00000E+000	2.56283E-001	0.00000E+000	5	...........	1366.97
	64	13	2.46313E-001	-1.94447E-010	0.00000E+000	2.46285E-001	0.00000E+000	5	...........	1366.97
	65	13.2	2.36316E-001	-1.81684E-010	0.00000E+000	2.36288E-001	0.00000E+000	5	...........	1366.97
	66	13.4	2.26306E-001	-1.69932E-010	0.00000E+000	2.26291E-001	0.00000E+000	5	...........	1366.97
	67	13.6	2.16303E-001	-1.61528E-010	0.00000E+000	2.16293E-001	0.00000E+000	5	...........	1366.97
	68	13.8	2.06314E-001	-1.56686E-010	0.00000E+000	2.06296E-001	0.00000E+000	5	...........	1366.97
	69	14	1.96314E-001	-1.54470E-010	0.00000E+000	1.96298E-001	0.00000E+000	5	...........	1366.97
	70	14.2	1.86322E-001	-1.54464E-010	0.00000E+000	1.86301E-001	0.00000E+000	5	...........	1366.97
	71	14.4	1.76321E-001	-1.54386E-010	0.00000E+000	1.76303E-001	0.00000E+000	5	...........	1366.97
	72	14.6	1.66328E-001	-1.56228E-010	0.00000E+000	1.66306E-001	0.00000E+000	5	...........	1366.97
	73	14.8	1.56339E-001	-1.57718E-010	0.00000E+000	1.56309E-001	0.00000E+000	5	...........	1366.97
	74	15	1.46332E-001	-1.58814E-010	0.00000E+000	1.46311E-001	0.00000E+000	5	...........	1366.90
	75	15.2	1.36332E-001	-1.60483E-010	0.00000E+000	1.36314E-001	0.00000E+000	5	...........	1366.88
	76	15.4	1.26321E-001	-1.63384E-010	0.00000E+000	1.26316E-001	0.00000E+000	5	...........	1366.88
	77	15.6	1.16338E-001	-1.65006E-010	0.00000E+000	1.16319E-001	0.00000E+000	5	...........	1366.88
	78	15.8	1.06332E-001	-1.66989E-010	0.00000E+000	1.06321E-001	0.00000E+000	5	...........	1366.88
	79	16	9.63426E-002	-1.68973E-010	0.00000E+000	9.63239E-002	0.00000E+000	5	...........	1366.95
	80	16.2	8.63462E-002	-1.72268E-010	0.00000E+000	8.63264E-002	0.00000E+000	5	...........	1366.97
	81	16.4	7.62978E-002	-1.74392E-010	0.00000E+000	7.62790E-002	0.00000E+000	5	...........	1366.97
	82	16.6	6.62816E-002	-1.75861E-010	0.00000E+000	6.62816E-002	0.00000E+000	5	...........	1366.97
	83	16.8	5.62949E-002	-1.78048E-010	0.00000E+000	5.62841E-002	0.00000E+000	5	...........	1366.97
	84	17	4.62958E-002	-1.81327E-010	0.00000E+000	4.62867E-002	0.00000E+000	5	...........	1366.97
	85	17.2	3.63014E-002	-1.84688E-010	0.00000E+000	3.62892E-002	0.00000E+000	5	...........	1366.97
	86	17.4	2.63199E-002	-1.87248E-010	0.00000E+000	2.62918E-002	0.00000E+000	5	...........	1366.97
	87	17.6	1.62962E-002	-1.88923E-010	0.00000E+000	1.62944E-002	0.00000E+000	5	...........	1366.97
	88	17.8	6.30339E-003	-1.91883E-010	0.00000E+000	6.29692E-003	0.00000E+000	5	...........	1366.97
	89	18	-3.71968E-003	-1.92761E-010	0.00000E+000	-3.70052E-003	0.00000E+000	5	...........	1366.97
	90	18.2	-1.37298E-002	-1.94854E-010	0.00000E+000	-1.36980E-002	0.00000E+000	5	...........	1366.97
	91	18.4	-2.37040E-002	-1.97189E-010	0.00000E+000	-2.36954E-002	0.00000E+000	5	...........	1366.97
	92	18.6	-3.37177E-002	-1.98451E-010	0.00000E+000	-3.36928E-002	0.00000E+000	5	...........	1366.97
	93	18.8	-4.37071E-002	-2.00519E-010	0.00000E+000	-4.36903E-002	0.00000E+000	5	...........	1366.97
	94	19	-5.37113E-002	-2.02460E-010	0.00000E+000	-5.36877E-002	0.00000E+000	5	...........	1366.97
	95	19.2	-6.36907E-002	-2.04998E-010	0.00000E+000	-6.36852E-002	0.00000E+000	5	...........	1366.97
	96	19.4	-7.36857E-002	-2.07458E-010	0.00000E+000	-7.36826E-002	0.00000E+000	5	...........	1366.97
	97	19.6	-8.36983E-002	-2.09043E-010	0.00000E+000	-8.36800E-002	0.00000E+000	5	...........	1366.97
	98	19.8	-9.37018E-002	-2.11341E-010	0.00000E+000	-9.36775E-002	0.00000E+000	5	...........	1366.97
	99	20	-1.03705E-001	-2.13662E-010	0.00000E+000	-1.03675E-001	0.00000E+000	5	...........	1366.90
	100	20.2	-1.13731E-001	-2.15766E-010	0.00000E+000	-1.13722E-001	0.00000E+000	5	...........	1366.88
	101	20.4	-1.23739E-001	-2.18021E-010	0.00000E+000	-1.23720E-001	0.00000E+000	5	...........	1366.88
	102	20.6	-1.33741E-001	-2.20251E-010	0.00000E+000	-1.33717E-001	0.00000E+000	5	...........	1366.88
	103	20.8	-1.43726E-001	-2.22247E-010	0.00000E+000	-1.43715E-001	0.00000E+000	5	...........	1366.88
	104	21	-1.53721E-001	-2.24097E-010	0.00000E+000	-1.53712E-001	0.00000E+000	5	...........	1366.88
	105	21.2	-1.63719E-001	-2.26311E-010	0.00000E+000	-1.63710E-001	0.00000E+000	5	...........	1366.88
	106	21.4	-1.73720E-001	-2.27764E-010	0.00000E+000	-1.73707E-001	0.00000E+000	5	...........	1366.88
	107	21.6	-1.83724E-001	-2.29340E-010	0.00000E+000	-1.83704E-001	0.00000E+000	5	...........	1366.88
	108	21.8	-1.93723E-001	-2.30466E-010	0.00000E+000	-1.93702E-001	0.00000E+000	5	...........	1366.88
	109	22	-2.03715E-001	-2.32953E-010	0.00000E+000	-2.03699E-001	0.00000E+000	5	...........	1366.81
	110	22.2	-2.13710E-001	-2.34240E-010	0.00000E+000	-2.13697E-001	0.00000E+000	5	...........	1366.79
	111	22.4	-2.23701E-001	-2.35094E-010	0.00000E+000	-2.23694E-001	0.00000E+000	5	...........	1366.79
	112	22.6	-2.33722E-001	-2.34638E-010	0.00000E+000	-2.33692E-001	0.00000E+000	5	...........	1366.79
	113	22.8	-2.43715E-001	-2.35838E-010	0.00000E+000	-2.43689E-001	0.00000E+000	5	...........	1366.79
	114	23	-2.53695E-001	-2.36802E-010	0.00000E+000	-2.53687E-001	0.00000E+000	5	...........	1366.79
	115	23.2	-2.63710E-001	-2.36826E-010	0.00000E+000	-2.63684E-001	0.00000E+000	5	...........	1366.79
	116	23.4	-2.73676E-001	-2.38108E-010	0.00000E+000	-2.73681E-001	0.00000E+000	5	...........	1366.79
	117	23.6	-2.83687E-001	-2.37976E-010	0.00000E+000	-2.83679E-001	0.00000E+000	5	...........	1366.79
	118	23.8	-2.93688E-001	-2.38211E-010	0.00000E+000	-2.93676E-001	0.00000E+000	5	...........	1366.79
	119	24	-3.03681E-001	-2.37269E-010	0.00000E+000	-3.03674E-001	0.00000E+000	5	...........	1366.79
	120	24.2	-3.13731E-001	-2.37055E-010	0.00000E+000	-3.13721E-001	0.00000E+000	5	...........	1366.79
	121	24.4	-3.23741E-001	-2.37332E-010	0.00000E+000	-3.23719E-001	0.00000E+000	5	...........	1366.79
	122	24.6	-3.33752E-001	-2.39633E-010	0.00000E+000	-3.33716E-001	0.00000E+000	5	...........	1366.79
	123	24.8	-3.43742E-001	-2.42871E-010	0.00000E+000	-3.43713E-001	0.00000E+000	5	...........	1366.79
	124	25	-3.53730E-001	-2.46485E-010	0.00000E+000	-3.53711E-001	0.00000E+000	5	...........	1366.72
	125	25.2	-3.63739E-001	-2.49250E-010	0.00000E+000	-3.63708E-001	0.00000E+000	5	...........	1366.71
	126	25.4	-3.73727E-001	-2.49639E-010	0.00000E+000	-3.73706E-001	0.00000E+000	5	...........	1366.71
	127	25.6	-3.83720E-001	-2.52504E-010	0.00000E+000	-3.83703E-001	0.00000E+000	5	...........	1366.71
	128	25.8	-3.93718E-001	-2.54339E-010	0.00000E+000	-3.93701E-001	0.00000E+000	5	...........	1366.71
	129	26	-4.03699E-001	-2.53978E-010	0.00000E+000	-4.03698E-001	0.00000E+000	5	...........	1366.71
	130	26.2	-4.13718E-001	-2.49418E-010	0.00000E+000	-4.13696E-001	0.00000E+000	5	...........	1366.71
	131	26.4	-4.23728E-001	-2.45766E-010	0.00000E+000	-4.23693E-001	0.00000E+000	5	...........	1366.71
	132	26.6	-4.33717E-001	-2.43095E-010	0.00000E+000	-4.33690E-001	0.00000E+000	5	...........	1366.71
	133	26.8	-4.43719E-001	-2.38965E-010	0.00000E+000	-4.43688E-001	0.00000E+000	5	...........	1366.71
	134	27	-4.53707E-001	-2.36167E-010	0.00000E+000	-4.53685E-001	0.00000E+000	5	...........	1366.71
	135	27.2	-4.63718E-001	-2.33555E-010	0.00000E+000	-4.63683E-001	0.00000E+000	5	...........	1366.71
	136	27.4	-4.73689E-001	-2.33331E-010	0.00000E+000	-4.73680E-001	0.00000E+000	5	...........	1366.71
	137	27.6	-4.83685E-001	-2.34964E-010	0.00000E+000	-4.83678E-001	0.00000E+000	5	...........	1366.71
	138	27.8	-4.93696E-001	-2.37695E-010	0.00000E+000	-4.93675E-001	0.00000E+000	5	...........	1366.71
	139	28	-5.03689E-001	-2.36808E-010	0.00000E+000	-5.03672E-001	0.00000E+000	5	...........	1366.64
	140	28.2	-5.13743E-001	-2.39253E-010	0.00000E+000	-5.13720E-001	0.00000E+000	5	...........	1366.62
	141	28.4	-5.23727E-001	-2.42628E-010	0.00000E+000	-5.23717E-001	0.00000E+000	5	...........	1366.62
	142	28.6	-5.33737E-001	-2.45765E-010	0.00000E+000	-5.33715E-001	0.00000E+000	5	...........	1366.62
	143	28.8	-5.43724E-001	-2.46548E-010	0.00000E+000	-5.43712E-001	0.00000E+000	5	...........	1366.62
	144	29	-5.53731E-001	-2.46978E-010	0.00000E+000	-5.53710E-001	0.00000E+000	5	...........	1366.62
	145	29.2	-5.63730E-001	-2.50208E-010	0.00000E+000	-5.63707E-001	0.00000E+000	5	...........	1366.62
	146	29.4	-5.73731E-001	-2.55114E-010	0.00000E+000	-5.73705E-001	0.00000E+000	5	...........	1366.62
	147	29.6	-5.83725E-001	-2.58215E-010	0.00000E+000	-5.83702E-001	0.00000E+000	5	...........	1366.62
	148	29.8	-5.93720E-001	-2.59287E-010	0.00000E+000	-5.93699E-001	0.00000E+000	5	...........	1366.62
	149	30	-6.03738E-001	-2.58953E-010	0.00000E+000	-6.03697E-001	0.00000E+000	5	...........	1366.55
	150	30.2	-5.93749E-001	-2.33683E-010	0.00000E+000	-5.93699E-001	0.00000E+000	5	...........	1366.54
	151	30.4	-5.83748E-001	-2.19122E-010	0.00000E+000	-5.83702E-001	0.00000E+000	5	...........	1366.54
	152	30.6	-5.73750E-001	-2.09607E-010	0.00000E+000	-5.73705E-001	0.00000E+000	5	...........	1366.54
	153	30.8	-5.63753E-001	-1.98649E-010	0.00000E+000	-5.63707E-001	0.00000E+000	5	...........	1366.54
	154	31	-5.53754E-001	-1.90352E-010	0.00000E+000	-5.53710E-001	0.00000E+000	5	...........	1366.54
	155	31.2	-5.43751E-001	-1.82476E-010	0.00000E+000	-5.43712E-001	0.00000E+000	5	...........	1366.54
	156	31.4	-5.33760E-001	-1.77284E-010	0.00000E+000	-5.33715E-001	0.00000E+000	5	...........	1366.54
	157	31.6	-5.23752E-001	-1.70754E-010	0.00000E+000	-5.23717E-001	0.00000E+000	5	...........	1366.54
	158	31.8	-5.13774E-001	-1.62966E-010	0.00000E+000	-5.13720E-001	0.00000E+000	5	...........	1366.54
	159	32	-5.03721E-001	-1.55601E-010	0.00000E+000	-5.03672E-001	0.00000E+000	5	...........	1366.54
	160	32.2	-4.93721E-001	-1.48635E-010	0.00000E+000	-4.93675E-001	0.00000E+000	5	...........	1366.54
	161	32.4	-4.83710E-001	-1.39187E-010	0.00000E+000	-4.83678E-001	0.00000E+000	5	...........	1366.54
	162	32.6	-4.73706E-001	-1.30613E-010	0.00000E+000	-4.73680E-001	0.00000E+000	5	...........	1366.54
	163	32.8	-4.63739E-001	-1.23732E-010	0.00000E+000	-4.63683E-001	0.00000E+000	5	...........	1366.54
	164	33	-4.53732E-001	-1.17217E-010	0.00000E+000	-4.53685E-001	0.00000E+000	5	...........	1366.54
	165	33.2	-4.43743E-001	-1.11129E-010	0.00000E+000	-4.43688E-001	0.00000E+000	5	...........	1366.54
	166	33.4	-4.33738E-001	-1.05609E-010	0.00000E+000	-4.33690E-001	0.00000E+000	5	...........	1366.54
	167	33.6	-4.23746E-001	-9.90790E-011	0.00000E+000	-4.23693E-001	0.00000E+000	5	...........	1366.54
	168	33.8	-4.13744E-001	-9.14707E-011	0.00000E+000	-4.13696E-001	0.00000E+000	5	...........	1366.54
	169	34	-4.03741E-001	-8.50214E-011	0.00000E+000	-4.03698E-001	0.00000E+000	5	...........	1366.54
	170	34.2	-3.93732E-001	-7.87925E-011	0.00000E+000	-3.93701E-001	0.00000E+000	5	...........	1366.54
	171	34.4	-3.83726E-001	-7.31296E-011	0.00000E+000	-3.83703E-001	0.00000E+000	5	...........	1366.54
	172	34.6	-3.73751E-001	-6.91954E-011	0.00000E+000	-3.73706E-001	0.00000E+000	5	...........	1366.54
	173	34.8	-3.63763E-001	-6.44424E-011	0.00000E+000	-3.63708E-001	0.00000E+000	5	...........	1366.54
	174	35	-3.53764E-001	-5.83280E-011	0.00000E+000	-3.53711E-001	0.00000E+000	5	...........	1366.54
	175	35.2	-3.43749E-001	-5.31361E-011	0.00000E+000	-3.43713E-001	0.00000E+000	5	...........	1366.54
	176	35.4	-3.33760E-001	-4.89624E-011	0.00000E+000	-3.33716E-001	0.00000E+000	5	...........	1366.54
	177	35.6	-3.23761E-001	-4.31382E-011	0.00000E+000	-3.23719E-001	0.00000E+000	5	...........	1366.54
	178	35.8	-3.13759E-001	-3.68464E-011	0.00000E+000	-3.13721E-001	0.00000E+000	5	...........	1366.54
	179	36	-3.03705E-001	-3.25489E-011	0.00000E+000	-3.03674E-001	0.00000E+000	5	...........	1366.54
	180	36.2	-2.93707E-001	-2.81307E-011	0.00000E+000	-2.93676E-001	0.00000E+000	5	...........	1366.54
	181	36.4	-2.83716E-001	-2.42561E-011	0.00000E+000	-2.83679E-001	0.00000E+000	5	...........	1366.54
	182	36.6	-2.73710E-001	-2.04983E-011	0.00000E+000	-2.73681E-001	0.00000E+000	5	...........	1366.54
	183	36.8	-2.63738E-001	-1.55825E-011	0.00000E+000	-2.63684E-001	0.00000E+000	5	...........	1366.54
	184	37	-2.53722E-001	-1.12302E-011	0.00000E+000	-2.53687E-001	0.00000E+000	5	...........	1366.54
	185	37.2	-2.43741E-001	-6.03241E-012	0.00000E+000	-2.43689E-001	0.00000E+000	5	...........	1366.54
	186	37.4	-2.33729E-001	-2.46595E-012	0.00000E+000	-2.33692E-001	0.00000E+000	5	...........	1366.54
	187	37.6	-2.23727E-001	1.56086E-012	0.00000E+000	-2.23694E-001	0.00000E+000	5	...........	1366.54
	188	37.8	-2.13743E-001	4.95626E-012	0.00000E+000	-2.13697E-001	0.00000E+000	5	...........	1366.54
	189	38	-2.03729E-001	8.39588E-012	0.00000E+000	-2.03699E-001	0.00000E+000	5	...........	1366.54
	190	38.2	-1.93758E-001	1.16895E-011	0.00000E+000	-1.93702E-001	0.00000E+000	5	...........	1366.54
	191	38.4	-1.83761E-001	1.44540E-011	0.00000E+000	-1.83704E-001	0.00000E+000	5	...........	1366.54
	192	38.6	-1.73759E-001	1.60879E-011	0.00000E+000	-1.73707E-001	0.00000E+000	5	...........	1366.54
	193	38.8	-1.63757E-001	1.87960E-011	0.00000E+000	-1.63710E-001	0.00000E+000	5	...........	1366.54
	194	39	-1.53743E-001	2.16139E-011	0.00000E+000	-1.53712E-001	0.00000E+000	5	...........	1366.54
	195	39.2	-1.43760E-001	2.39326E-011	0.00000E+000	-1.43715E-001	0.00000E+000	5	...........	1366.54
	196	39.4	-1.33757E-001	2.69058E-011	0.00000E+000	-1.33717E-001	0.00000E+000	5	...........	1366.54
	197	39.6	-1.23756E-001	2.89221E-011	0.00000E+000	-1.23720E-001	0.00000E+000	5	...........	1366.54
	198	39.8	-1.13749E-001	3.22366E-011	0.00000E+000	-1.13722E-001	0.00000E+000	5	...........	1366.54
	199	40	-1.03718E-001	3.40579E-011	0.00000E+000	-1.03675E-001	0.00000E+000	5	...........	1366.47
	200	40.2	-9.37104E-002	3.63251E-011	0.00000E+000	-9.36775E-002	0.00000E+000	5	...........	1366.45
	201	40.4	-8.37132E-002	3.79479E-011	0.00000E+000	-8.36800E-002	0.00000E+000	5	...........	1366.45
	202	40.6	-7.37223E-002	3.96691E-011	0.00000E+000	-7.36826E-002	0.00000E+000	5	...........	1366.45
	203	40.8	-6.37236E-002	4.15566E-011	0.00000E+000	-6.36852E-002	0.00000E+000	5	...........	1366.45
	204	41	-5.37338E-002	4.31157E-011	0.00000E+000	-5.36877E-002	0.00000E+000	5	...........	1366.88
	205	41.2	-4.37280E-002	4.49000E-011	0.00000E+000	-4.36903E-002	0.00000E+000	5	...........	1366.97
	206	41.4	-3.37344E-002	4.60735E-011	0.00000E+000	-3.36928E-002	0.00000E+000	5	...........	1366.97
	207	41.6	-2.37312E-002	4.74818E-011	0.00000E+000	-2.36954E-002	0.00000E+000	5	...........	1366.97
	208	41.8	-1.37571E-002	4.88539E-011	0.00000E+000	-1.36980E-002	0.00000E+000	5	...........	1366.97
	209	42	-3.76125E-003	4.87624E-011	0.00000E+000	-3.70052E-003	0.00000E+000	5	...........	1366.97
	210	42.2	6.27483E-003	4.97916E-011	0.00000E+000	6.29692E-003	0.00000E+000	5	...........	1366.97
	211	42.4	1.62675E-002	5.08705E-011	0.00000E+000	1.62944E-002	0.00000E+000	5	...........	1366.97
	212	42.6	2.62963E-002	5.23584E-011	0.00000E+000	2.62918E-002	0.00000E+000	5	...........	1366.97
	213	42.8	3.62759E-002	5.35458E-011	0.00000E+000	3.62892E-002	0.00000E+000	5	...........	1366.97
	214	43	4.62724E-002	5.51313E-011	0.00000E+000	4.62867E-002	0.00000E+000	5	...........	1366.97
	215	43.2	5.62639E-002	5.63857E-011	0.00000E+000	5.62841E-002	0.00000E+000	5	...........	1366.97
	216	43.4	6.62544E-002	5.72828E-011	0.00000E+000	6.62816E-002	0.00000E+000	5	...........	1366.97
	217	43.6	7.62815E-002	5.82477E-011	0.00000E+000	7.62790E-002	0.00000E+000	5	...........	1366.97
	218	43.8	8.63225E-002	5.87239E-011	0.00000E+000	8.63264E-002	0.00000E+000	5	...........	1366.97
	219	44	9.63200E-002	6.00565E-011	0.00000E+000	9.63239E-002	0.00000E+000	5	...........	1366.97
	220	44.2	1.06305E-001	6.12239E-011	0.00000E+000	1.06321E-001	0.00000E+000	5	...........	1366.97
	221	44.4	1.16325E-001	6.18250E-011	0.00000E+000	1.16319E-001	0.00000E+000	5	...........	1366.97
	222	44.6	1.26298E-001	6.36154E-011	0.00000E+000	1.26316E-001	0.00000E+000	5	...........	1366.97
	223	44.8	1.36317E-001	6.47762E-011	0.00000E+000	1.36314E-001	0.00000E+000	5	...........	1366.97
	224	45	1.46307E-001	6.54106E-011	0.00000E+000	1.46311E-001	0.00000E+000	5	...........	1366.97
	225	45.2	1.56313E-001	6.70745E-011	0.00000E+000	1.56309E-001	0.00000E+000	5	...........	1366.97
	226	45.4	1.66311E-001	6.92884E-011	0.00000E+000	1.66306E-001	0.00000E+000	5	...........	1366.97
	227	45.6	1.76290E-001	7.05453E-011	0.00000E+000	1.76303E-001	0.00000E+000	5	...........	1366.97
	228	45.8	1.86290E-001	7.20159E-011	0.00000E+000	1.86301E-001	0.00000E+000	5	...........	1366.97
	229	46	1.96290E-001	7.24701E-011	0.00000E+000	1.96298E-001	0.00000E+000	5	...........	1366.97
	230	46.2	2.06303E-001	7.35060E-011	0.00000E+000	2.06296E-001	0.00000E+000	5	...........	1366.97
	231	46.4	2.16279E-001	7.48322E-011	0.00000E+000	2.16293E-001	0.00000E+000	5	...........	1366.97
	232	46.6	2.26284E-001	7.68137E-011	0.00000E+000	2.26291E-001	0.00000E+000	5	...........	1366.97
	233	46.8	2.36298E-001	7.86028E-011	0.00000E+000	2.36288E-001	0.00000E+000	5	...........	1366.97
	234	47	2.46289E-001	7.90629E-011	0.00000E+000	2.46285E-001	0.00000E+000	5	...........	1366.97
	235	47.2	2.56291E-001	7.97060E-011	0.00000E+000	2.56283E-001	0.00000E+000	5	...........	1366.97
	236	47.4	2.66277E-001	7.88031E-011	0.00000E+000	2.66280E-001	0.00000E+000	5	...........	1366.97
	237	47.6	2.76279E-001	8.04639E-011	0.00000E+000	2.76278E-001	0.00000E+000	5	...........	1366.97
	238	47.8	2.86319E-001	7.93755E-011	0.00000E+000	2.86325E-001	0.00000E+000	5	...........	1366.97
	239	48	2.96335E-001	7.90106E-011	0.00000E+000	2.96323E-001	0.00000E+000	5	...........	1366.97
	240	48.2	3.06311E-001	7.81108E-011	0.00000E+000	3.06320E-001	0.00000E+000	5	...........	1366.97
	241	48.4	3.16322E-001	7.88593E-011	0.00000E+000	3.16318E-001	0.00000E+000	5	...........	1366.97
	242	48.6	3.26329E-001	7.79650E-011	0.00000E+000	3.26315E-001	0.00000E+000	5	...........	1366.97
	243	48.8	3.36334E-001	7.70224E-011	0.00000E+000	3.36312E-001	0.00000E+000	5	...........	1366.97
	244	49	3.46325E-001	7.59757E-011	0.00000E+000	3.46310E-001	0.00000E+000	5	...........	1366.97
	245	49.2	3.56301E-001	7.43162E-011	0.00000E+000	3.56307E-001	0.00000E+000	5	...........	1366.97
	246	49.4	3.66318E-001	7.37930E-011	0.00000E+000	3.66305E-001	0.00000E+000	5	...........	1366.97
	247	49.6	3.76309E-001	7.25608E-011	0.00000E+000	3.76302E-001	0.00000E+000	5	...........	1366.97
	248	49.8	3.86305E-001	7.14863E-011	0.00000E+000	3.86300E-001	0.00000E+000	5	...........	1366.97
	249	50	3.96303E-001	7.10649E-011	0.00000E+000	3.96297E-001	0.00000E+000	5	...........	1366.97
	250	50.2	4.06309E-001	7.00168E-011	0.00000E+000	4.06295E-001	0.00000E+000	5	...........	1366.97
	251	50.4	4.16321E-001	6.86709E-011	0.00000E+000	4.16292E-001	0.00000E+000	5	...........	1366.97
	252	50.6	4.26310E-001	6.83835E-011	0.00000E+000	4.26289E-001	0.00000E+000	5	...........	1366.97
	253	50.8	4.36323E-001	7.00644E-011	0.00000E+000	4.36287E-001	0.00000E+000	5	...........	1366.97
	254	51	4.46311E-001	6.96157E-011	0.00000E+000	4.46284E-001	0.00000E+000	5	...........	1366.97
	255	51.2	4.56305E-001	7.09573E-011	0.00000E+000	4.56282E-001	0.00000E+000	5	...........	1366.97
	256	51.4	4.66301E-001	7.12271E-011	0.00000E+000	4.66279E-001	0.00000E+000	5	...........	1366.97
	257	51.6	4.76290E-001	7.05770E-011	0.00000E+000	4.76277E-001	0.00000E+000	5	...........	1366.97
	258	51.8	4.86357E-001	6.98558E-011	0.00000E+000	4.86324E-001	0.00000E+000	5	...........	1366.97
	259	52	4.96334E-001	6.98750E-011	0.00000E+000	4.96321E-001	0.00000E+000	5	...........	1366.97
	260	52.2	5.06343E-001	7.08958E-011	0.00000E+000	5.06319E-001	0.00000E+000	5	...........	1366.97
	261	52.4	5.16357E-001	7.29227E-011	0.00000E+000	5.16316E-001	0.00000E+000	5	...........	1366.97
	262	52.6	5.26346E-001	7.24176E-011	0.00000E+000	5.26314E-001	0.00000E+000	5	...........	1366.97
	263	52.8	5.36349E-001	7.21007E-011	0.00000E+000	5.36311E-001	0.00000E+000	5	...........	1366.97
	264	53	5.46339E-001	7.04933E-011	0.00000E+000	5.46309E-001	0.00000E+000	5	...........	1366.97
	265	53.2	5.56338E-001	6.74893E-011	0.00000E+000	5.56306E-001	0.00000E+000	5	...........	1366.97
	266	53.4	5.66350E-001	6.53728E-011	0.00000E+000	5.66304E-001	0.00000E+000	5	...........	1366.97
	267	53.6	5.76350E-001	6.40733E-011	0.00000E+000	5.76301E-001	0.00000E+000	5	...........	1366.97
	268	53.8	5.86326E-001	6.30630E-011	0.00000E+000	5.86298E-001	0.00000E+000	5	...........	1366.97
	269	54	5.96327E-001	6.13930E-011	0.00000E+000	5.96296E-001	0.00000E+000	5	...........	1366.97
	270	54.2	6.06332E-001	6.17691E-011	0.00000E+000	6.06293E-001	0.00000E+000	5	...........	1366.97
	271	54.4	6.16342E-001	6.32027E-011	0.00000E+000	6.16291E-001	0.00000E+000	5	...........	1366.97
	272	54.6	6.26324E-001	6.49400E-011	0.00000E+000	6.26288E-001	0.00000E+000	5	...........	1366.97
	273	54.8	6.36315E-001	6.68006E-011	0.00000E+000	6.36286E-001	0.00000E+000	5	...........	1366.97
	274	55	6.46336E-001	7.10407E-011	0.00000E+000	6.46283E-001	0.00000E+000	5	...........	1366.97
	275	55.2	6.56321E-001	7.26206E-011	0.00000E+000	6.56281E-001	0.00000E+000	5	...........	1366.97
	276	55.4	6.66320E-001	7.42514E-011	0.00000E+000	6.66278E-001	0.00000E+000	5	...........	1366.97
	277	55.6	6.76364E-001	7.53777E-011	0.00000E+000	6.76325E-001	0.00000E+000	5	...........	1366.97
	278	55.8	6.86367E-001	7.61212E-011	0.00000E+000	6.86323E-001	0.00000E+000	5	...........	1366.97
	279	56	6.96353E-001	7.77097E-011	0.00000E+000	6.96320E-001	0.00000E+000	5	...........	1366.97
	280	56.2	7.06355E-001	8.09949E-011	0.00000E+000	7.06318E-001	0.00000E+000	5	...........	1366.97
	281	56.4	7.16355E-001	8.44766E-011	0.00000E+000	7.16315E-001	0.00000E+000	5	...........	1366.97
	282	56.6	7.26377E-001	8.81112E-011	0.00000E+000	7.26313E-001	0.00000E+000	5	...........	1366.97
	283	56.8	7.36379E-001	9.08910E-011	0.00000E+000	7.36310E-001	0.00000E+000	5	...........	1366.97
	284	57	7.46382E-001	9.43287E-011	0.00000E+000	7.46307E-001	0.00000E+000	5	...........	1366.97
	285	57.2	7.56367E-001	1.01239E-010	0.00000E+000	7.56305E-001	0.00000E+000	5	...........	1366.97
	286	57.4	7.66333E-001	1.10944E-010	0.00000E+000	7.66302E-001	0.00000E+000	5	...........	1366.97
	287	57.6	7.76338E-001	1.21874E-010	0.00000E+000	7.76300E-001	0.00000E+000	5	...........	1366.97
	288	57.8	7.86333E-001	1.34654E-010	0.00000E+000	7.86297E-001	0.00000E+000	5	...........	1366.97
	289	58	7.96339E-001	1.54632E-010	0.00000E+000	7.96295E-001	0.00000E+000	5	...........	1366.97
CURVE2	TABLE
	Pt	T	Vf	Im	Vu	Sig	Ach	IERange	Over	Temp
	#	s	V vs. Ref.	A	V	V	V	#	bits	deg C
	290	58.2	7.90074E-001	1.21962E-010	0.00000E+000	7.89996E-001	0.00000E+000	5	...........	1366.97
	291	58.4	7.80057E-001	9.76891E-011	0.00000E+000	7.79999E-001	0.00000E+000	5	...........	1366.97
	292	58.6	7.70086E-001	8.15229E-011	0.00000E+000	7.70001E-001	0.00000E+000	5	...........	1366.97
	293	58.8	7.60072E-001	7.04911E-011	0.00000E+000	7.60004E-001	0.00000E+000	5	...........	1366.97
	294	59	7.50093E-001	6.11719E-011	0.00000E+000	7.50007E-001	0.00000E+000	5	...........	1366.97
	295	59.2	7.40088E-001	5.31873E-011	0.00000E+000	7.40009E-001	0.00000E+000	5	...........	1366.97
	296	59.4	7.30101E-001	4.66298E-011	0.00000E+000	7.30012E-001	0.00000E+000	5	...........	1366.97
	297	59.6	7.20089E-001	3.97659E-011	0.00000E+000	7.20014E-001	0.00000E+000	5	...........	1366.97
	298	59.8	7.10095E-001	3.41900E-011	0.00000E+000	7.10017E-001	0.00000E+000	5	...........	1366.97
	299	60	7.00069E-001	2.76668E-011	0.00000E+000	7.00019E-001	0.00000E+000	5	...........	1366.97
	300	60.2	6.90065E-001	2.30114E-011	0.00000E+000	6.90022E-001	0.00000E+000	5	...........	1366.97
	301	60.4	6.80102E-001	1.99500E-011	0.00000E+000	6.80025E-001	0.00000E+000	5	...........	1366.97
	302	60.6	6.70045E-001	1.49964E-011	0.00000E+000	6.69977E-001	0.00000E+000	5	...........	1366.97
	303	60.8	6.60058E-001	1.01986E-011	0.00000E+000	6.59980E-001	0.00000E+000	5	...........	1366.97
	304	61	6.50055E-001	5.94648E-012	0.00000E+000	6.49982E-001	0.00000E+000	5	...........	1366.97
	305	61.2	6.40060E-001	2.81338E-012	0.00000E+000	6.39985E-001	0.00000E+000	5	...........	1366.97
	306	61.4	6.30056E-001	-5.20275E-013	0.00000E+000	6.29987E-001	0.00000E+000	5	...........	1366.97
	307	61.6	6.20054E-001	-4.28117E-012	0.00000E+000	6.19990E-001	0.00000E+000	5	...........	1366.97
	308	61.8	6.10059E-001	-7.22986E-012	0.00000E+000	6.09992E-001	0.00000E+000	5	...........	1366.97
	309	62	6.00050E-001	-1.13841E-011	0.00000E+000	5.99995E-001	0.00000E+000	5	...........	1366.97
	310	62.2	5.90066E-001	-1.30023E-011	0.00000E+000	5.89998E-001	0.00000E+000	5	...........	1366.97
	311	62.4	5.80057E-001	-1.26649E-011	0.00000E+000	5.80000E-001	0.00000E+000	5	...........	1366.97
	312	62.6	5.70063E-001	-1.43049E-011	0.00000E+000	5.70003E-001	0.00000E+000	5	...........	1366.97
	313	62.8	5.60051E-001	-1.82600E-011	0.00000E+000	5.60005E-001	0.00000E+000	5	...........	1366.97
	314	63	5.50070E-001	-2.11800E-011	0.00000E+000	5.50008E-001	0.00000E+000	5	...........	1366.97
	315	63.2	5.40075E-001	-2.09956E-011	0.00000E+000	5.40010E-001	0.00000E+000	5	...........	1366.97
	316	63.4	5.30060E-001	-2.42272E-011	0.00000E+000	5.30013E-001	0.00000E+000	5	...........	1366.97
	317	63.6	5.20049E-001	-2.63956E-011	0.00000E+000	5.20015E-001	0.00000E+000	5	...........	1366.97
	318	63.8	5.10058E-001	-2.79967E-011	0.00000E+000	5.10018E-001	0.00000E+000	5	...........	1366.97
	319	64	5.00074E-001	-3.12869E-011	0.00000E+000	5.00021E-001	0.00000E+000	5	...........	1366.97
	320	64.2	4.90075E-001	-3.36574E-011	0.00000E+000	4.90023E-001	0.00000E+000	5	...........	1366.97
	321	64.4	4.80028E-001	-3.55468E-011	0.00000E+000	4.79976E-001	0.00000E+000	5	...........	1366.97
	322	64.6	4.70019E-001	-3.54075E-011	0.00000E+000	4.69978E-001	0.00000E+000	5	...........	1366.97
	323	64.8	4.60029E-001	-3.69899E-011	0.00000E+000	4.59981E-001	0.00000E+000	5	...........	1366.97
	324	65	4.50033E-001	-3.87820E-011	0.00000E+000	4.49983E-001	0.00000E+000	5	...........	1366.97
	325	65.2	4.40034E-001	-4.02304E-011	0.00000E+000	4.39986E-001	0.00000E+000	5	...........	1366.97
	326	65.4	4.30039E-001	-4.13071E-011	0.00000E+000	4.29988E-001	0.00000E+000	5	...........	1366.97
	327	65.6	4.20039E-001	-4.41033E-011	0.00000E+000	4.19991E-001	0.00000E+000	5	...........	1366.97
	328	65.8	4.10045E-001	-4.66518E-011	0.00000E+000	4.09994E-001	0.00000E+000	5	...........	1366.97
	329	66	4.00035E-001	-4.81827E-011	0.00000E+000	3.99996E-001	0.00000E+000	5	...........	1366.89
	330	66.2	3.90035E-001	-5.01167E-011	0.00000E+000	3.89999E-001	0.00000E+000	5	...........	1366.88
	331	66.4	3.80029E-001	-5.19528E-011	0.00000E+000	3.80001E-001	0.00000E+000	5	...........	1366.88
	332	66.6	3.70032E-001	-5.37305E-011	0.00000E+000	3.70004E-001	0.00000E+000	5	...........	1366.88
	333	66.8	3.60029E-001	-5.47012E-011	0.00000E+000	3.60006E-001	0.00000E+000	5	...........	1366.88
	334	67	3.50035E-001	-5.55499E-011	0.00000E+000	3.50009E-001	0.00000E+000	5	...........	1366.88
	335	67.2	3.40045E-001	-5.77025E-011	0.00000E+000	3.40011E-001	0.00000E+000	5	...........	1366.88
	336	67.4	3.30044E-001	-5.84799E-011	0.00000E+000	3.30014E-001	0.00000E+000	5	...........	1366.88
	337	67.6	3.20069E-001	-6.01082E-011	0.00000E+000	3.20017E-001	0.00000E+000	5	...........	1366.88
	338	67.8	3.10071E-001	-6.14278E-011	0.00000E+000	3.10019E-001	0.00000E+000	5	...........	1366.88
	339	68	3.00052E-001	-6.30352E-011	0.00000E+000	3.00022E-001	0.00000E+000	5	...........	1366.81
	340	68.2	2.90053E-001	-6.44919E-011	0.00000E+000	2.90024E-001	0.00000E+000	5	...........	1366.79
[...]
	377	75.6	-7.99935E-002	-1.07520E-010	0.00000E+000	-7.99810E-002	0.00000E+000	5	...........	1366.54
	378	75.8	-8.99938E-002	-1.08506E-010	0.00000E+000	-8.99784E-002	0.00000E+000	5	...........	1366.54
	379	76	-9.99799E-002	-1.09774E-010	0.00000E+000	-9.99759E-002	0.00000E+000	5	...........	1366.54
	380	76.2	-1.10046E-001	-1.10979E-010	0.00000E+000	-1.10023E-001	0.00000E+000	5	...........	1366.54
	381	76.4	-1.20032E-001	-1.14363E-010	0.00000E+000	-1.20021E-001	0.00000E+000	5	...........	1366.54
	382	76.6	-1.30038E-001	-1.17457E-010	0.00000E+000	-1.30018E-001	0.00000E+000	5	...........	1366.54
	383	76.8	-1.40022E-001	-1.21731E-010	0.00000E+000	-1.40016E-001	0.00000E+000	5	...........	1366.54
	384	77	-1.50032E-001	-1.25386E-010	0.00000E+000	-1.50013E-001	0.00000E+000	5	...........	1366.54
	385	77.2	-1.60021E-001	-1.26974E-010	0.00000E+000	-1.60011E-001	0.00000E+000	5	...........	1366.54
	386	77.4	-1.70024E-001	-1.29263E-010	0.00000E+000	-1.70008E-001	0.00000E+000	5	...........	1366.54
	387	77.6	-1.80032E-001	-1.31913E-010	0.00000E+000	-1.80005E-001	0.00000E+000	5	...........	1366.54
	388	77.8	-1.90032E-001	-1.34109E-010	0.00000E+000	-1.90003E-001	0.00000E+000	5	...........	1366.54
	389	78	-2.00027E-001	-1.35290E-010	0.00000E+000	-2.00000E-001	0.00000E+000	5	...........	1366.54
	390	78.2	-2.10019E-001	-1.37434E-010	0.00000E+000	-2.09998E-001	0.00000E+000	5	...........	1366.54
	391	78.4	-2.20017E-001	-1.39849E-010	0.00000E+000	-2.19995E-001	0.00000E+000	5	...........	1366.54
	392	78.6	-2.29991E-001	-1.42223E-010	0.00000E+000	-2.29993E-001	0.00000E+000	5	...........	1366.54
	393	78.8	-2.40006E-001	-1.44109E-010	0.00000E+000	-2.39990E-001	0.00000E+000	5	...........	1366.54
	394	79	-2.50003E-001	-1.45934E-010	0.00000E+000	-2.49987E-001	0.00000E+000	5	...........	1366.54
	395	79.2	-2.60007E-001	-1.47883E-010	0.00000E+000	-2.59985E-001	0.00000E+000	5	...........	1366.54
	396	79.4	-2.69986E-001	-1.50251E-010	0.00000E+000	-2.69982E-001	0.00000E+000	5	...........	1366.54
	397	79.6	-2.79991E-001	-1.51302E-010	0.00000E+000	-2.79980E-001	0.00000E+000	5	...........	1366.54
	398	79.8	-2.89998E-001	-1.53244E-010	0.00000E+000	-2.89977E-001	0.00000E+000	5	...........	1366.54
	399	80	-2.99997E-001	-1.55573E-010	0.00000E+000	-2.99975E-001	0.00000E+000	5	...........	1366.54
	400	80.2	-3.10043E-001	-1.58060E-010	0.00000E+000	-3.10022E-001	0.00000E+000	5	...........	1366.54
	401	80.4	-3.20028E-001	-1.61602E-010	0.00000E+000	-3.20020E-001	0.00000E+000	5	...........	1366.54
	402	80.6	-3.30025E-001	-1.63184E-010	0.00000E+000	-3.30017E-001	0.00000E+000	5	...........	1366.54
	403	80.8	-3.40051E-001	-1.64836E-010	0.00000E+000	-3.40014E-001	0.00000E+000	5	...........	1366.54
	404	81	-3.50037E-001	-1.67354E-010	0.00000E+000	-3.50012E-001	0.00000E+000	5	...........	1366.54
	405	81.2	-3.60038E-001	-1.69049E-010	0.00000E+000	-3.60009E-001	0.00000E+000	5	...........	1366.54
	406	81.4	-3.70013E-001	-1.69374E-010	0.00000E+000	-3.70007E-001	0.00000E+000	5	...........	1366.54
	407	81.6	-3.80017E-001	-1.71271E-010	0.00000E+000	-3.80004E-001	0.00000E+000	5	...........	1366.54
	408	81.8	-3.90017E-001	-1.74055E-010	0.00000E+000	-3.90002E-001	0.00000E+000	5	...........	1366.54
	409	82	-4.00025E-001	-1.76223E-010	0.00000E+000	-3.99999E-001	0.00000E+000	5	...........	1366.54
	410	82.2	-4.10012E-001	-1.77489E-010	0.00000E+000	-4.09997E-001	0.00000E+000	5	...........	1366.54
	411	82.4	-4.20017E-001	-1.78571E-010	0.00000E+000	-4.19994E-001	0.00000E+000	5	...........	1366.54
	412	82.6	-4.30013E-001	-1.81460E-010	0.00000E+000	-4.29991E-001	0.00000E+000	5	...........	1366.54
	413	82.8	-4.40027E-001	-1.84481E-010	0.00000E+000	-4.39989E-001	0.00000E+000	5	...........	1366.54
	414	83	-4.50012E-001	-1.85739E-010	0.00000E+000	-4.49986E-001	0.00000E+000	5	...........	1366.46
	415	83.2	-4.60006E-001	-1.87827E-010	0.00000E+000	-4.59984E-001	0.00000E+000	5	...........	1366.45
	416	83.4	-4.70019E-001	-1.90712E-010	0.00000E+000	-4.69981E-001	0.00000E+000	5	...........	1366.45
	417	83.6	-4.79998E-001	-1.94165E-010	0.00000E+000	-4.79979E-001	0.00000E+000	5	...........	1366.45
	418	83.8	-4.90000E-001	-1.96986E-010	0.00000E+000	-4.89976E-001	0.00000E+000	5	...........	1366.45
	419	84	-4.99991E-001	-1.97778E-010	0.00000E+000	-4.99974E-001	0.00000E+000	5	...........	1366.52
	420	84.2	-5.10024E-001	-2.00242E-010	0.00000E+000	-5.10021E-001	0.00000E+000	5	...........	1366.54
	421	84.4	-5.20032E-001	-2.02668E-010	0.00000E+000	-5.20018E-001	0.00000E+000	5	...........	1366.54
	422	84.6	-5.30031E-001	-2.04778E-010	0.00000E+000	-5.30016E-001	0.00000E+000	5	...........	1366.54
	423	84.8	-5.40041E-001	-2.08902E-010	0.00000E+000	-5.40013E-001	0.00000E+000	5	...........	1366.54
	424	85	-5.50024E-001	-2.12478E-010	0.00000E+000	-5.50011E-001	0.00000E+000	5	...........	1366.54
	425	85.2	-5.60024E-001	-2.14539E-010	0.00000E+000	-5.60008E-001	0.00000E+000	5	...........	1366.54
	426	85.4	-5.70022E-001	-2.16170E-010	0.00000E+000	-5.70006E-001	0.00000E+000	5	...........	1366.54
	427	85.6	-5.80032E-001	-2.18492E-010	0.00000E+000	-5.80003E-001	0.00000E+000	5	...........	1366.54
	428	85.8	-5.90034E-001	-2.19182E-010	0.00000E+000	-5.90000E-001	0.00000E+000	5	...........	1366.54
	429	86	-6.00033E-001	-2.19525E-010	0.00000E+000	-5.99998E-001	0.00000E+000	5	...........	1366.54
	430	86.2	-5.90063E-001	-1.89697E-010	0.00000E+000	-5.90000E-001	0.00000E+000	5	...........	1366.54
	431	86.4	-5.80051E-001	-1.72692E-010	0.00000E+000	-5.80003E-001	0.00000E+000	5	...........	1366.54
	432	86.6	-5.70042E-001	-1.58027E-010	0.00000E+000	-5.70006E-001	0.00000E+000	5	...........	1366.54
	433	86.8	-5.60043E-001	-1.45231E-010	0.00000E+000	-5.60008E-001	0.00000E+000	5	...........	1366.54
	434	87	-5.50061E-001	-1.35619E-010	0.00000E+000	-5.50011E-001	0.00000E+000	5	...........	1366.54
	435	87.2	-5.40064E-001	-1.27550E-010	0.00000E+000	-5.40013E-001	0.00000E+000	5	...........	1366.54
	436	87.4	-5.30052E-001	-1.19636E-010	0.00000E+000	-5.30016E-001	0.00000E+000	5	...........	1366.54
	437	87.6	-5.20058E-001	-1.13177E-010	0.00000E+000	-5.20018E-001	0.00000E+000	5	...........	1366.54
	438	87.8	-5.10054E-001	-1.06210E-010	0.00000E+000	-5.10021E-001	0.00000E+000	5	...........	1366.54
	439	88	-5.00038E-001	-1.01279E-010	0.00000E+000	-4.99974E-001	0.00000E+000	5	...........	1366.54
	440	88.2	-4.90033E-001	-9.56302E-011	0.00000E+000	-4.89976E-001	0.00000E+000	5	...........	1366.54
	441	88.4	-4.80015E-001	-9.02162E-011	0.00000E+000	-4.79979E-001	0.00000E+000	5	...........	1366.54
	442	88.6	-4.70034E-001	-8.50298E-011	0.00000E+000	-4.69981E-001	0.00000E+000	5	...........	1366.54
	443	88.8	-4.60042E-001	-8.09165E-011	0.00000E+000	-4.59984E-001	0.00000E+000	5	...........	1366.54
	444	89	-4.50044E-001	-7.62163E-011	0.00000E+000	-4.49986E-001	0.00000E+000	5	...........	1366.54
	445	89.2	-4.40052E-001	-7.13917E-011	0.00000E+000	-4.39989E-001	0.00000E+000	5	...........	1366.54
	446	89.4	-4.30039E-001	-6.70845E-011	0.00000E+000	-4.29991E-001	0.00000E+000	5	...........	1366.54
	447	89.6	-4.20049E-001	-6.22327E-011	0.00000E+000	-4.19994E-001	0.00000E+000	5	...........	1366.54
	448	89.8	-4.10046E-001	-5.86571E-011	0.00000E+000	-4.09997E-001	0.00000E+000	5	...........	1366.54
	449	90	-4.00034E-001	-5.36412E-011	0.00000E+000	-3.99999E-001	0.00000E+000	5	...........	1366.54
	450	90.2	-3.90036E-001	-4.92628E-011	0.00000E+000	-3.90002E-001	0.00000E+000	5	...........	1366.54
	451	90.4	-3.80044E-001	-4.54285E-011	0.00000E+000	-3.80004E-001	0.00000E+000	5	...........	1366.54
	452	90.6	-3.70047E-001	-4.15126E-011	0.00000E+000	-3.70007E-001	0.00000E+000	5	...........	1366.54
	453	90.8	-3.60055E-001	-3.81414E-011	0.00000E+000	-3.60009E-001	0.00000E+000	5	...........	1366.54
	454	91	-3.50059E-001	-3.43608E-011	0.00000E+000	-3.50012E-001	0.00000E+000	5	...........	1366.97
	455	91.2	-3.40074E-001	-3.01407E-011	0.00000E+000	-3.40014E-001	0.00000E+000	5	...........	1367.05
	456	91.4	-3.30056E-001	-2.71797E-011	0.00000E+000	-3.30017E-001	0.00000E+000	5	...........	1367.05
	457	91.6	-3.20053E-001	-2.39899E-011	0.00000E+000	-3.20020E-001	0.00000E+000	5	...........	1367.05
	458	91.8	-3.10070E-001	-2.01472E-011	0.00000E+000	-3.10022E-001	0.00000E+000	5	...........	1367.05
	459	92	-3.00004E-001	-1.58757E-011	0.00000E+000	-2.99975E-001	0.00000E+000	5	...........	1366.98
	460	92.2	-2.90019E-001	-1.30641E-011	0.00000E+000	-2.89977E-001	0.00000E+000	5	...........	1366.97
	461	92.4	-2.80006E-001	-9.47621E-012	0.00000E+000	-2.79980E-001	0.00000E+000	5	...........	1366.97
	462	92.6	-2.70014E-001	-6.53030E-012	0.00000E+000	-2.69982E-001	0.00000E+000	5	...........	1366.97
	463	92.8	-2.60024E-001	-2.62255E-012	0.00000E+000	-2.59985E-001	0.00000E+000	5	...........	1366.97
	464	93	-2.50017E-001	6.74942E-013	0.00000E+000	-2.49987E-001	0.00000E+000	5	...........	1366.97
	465	93.2	-2.40031E-001	3.12685E-012	0.00000E+000	-2.39990E-001	0.00000E+000	5	...........	1366.97
	466	93.4	-2.30031E-001	5.83522E-012	0.00000E+000	-2.29993E-001	0.00000E+000	5	...........	1366.97
	467	93.6	-2.20046E-001	9.48374E-012	0.00000E+000	-2.19995E-001	0.00000E+000	5	...........	1366.97
	468	93.8	-2.10034E-001	1.21815E-011	0.00000E+000	-2.09998E-001	0.00000E+000	5	...........	1366.97
	469	94	-2.00036E-001	1.53892E-011	0.00000E+000	-2.00000E-001	0.00000E+000	5	...........	1366.97
	470	94.2	-1.90042E-001	1.80558E-011	0.00000E+000	-1.90003E-001	0.00000E+000	5	...........	1366.97
	471	94.4	-1.80058E-001	2.08318E-011	0.00000E+000	-1.80005E-001	0.00000E+000	5	...........	1366.97
	472	94.6	-1.70036E-001	2.28695E-011	0.00000E+000	-1.70008E-001	0.00000E+000	5	...........	1366.97
	473	94.8	-1.60054E-001	2.60282E-011	0.00000E+000	-1.60011E-001	0.00000E+000	5	...........	1366.97
	474	95	-1.50054E-001	2.73578E-011	0.00000E+000	-1.50013E-001	0.00000E+000	5	...........	1366.97
	475	95.2	-1.40051E-001	3.00912E-011	0.00000E+000	-1.40016E-001	0.00000E+000	5	...........	1366.97
	476	95.4	-1.30070E-001	3.15323E-011	0.00000E+000	-1.30018E-001	0.00000E+000	5	...........	1366.97
	477	95.6	-1.20063E-001	3.38440E-011	0.00000E+000	-1.20021E-001	0.00000E+000	5	...........	1366.97
	478	95.8	-1.10079E-001	3.55527E-011	0.00000E+000	-1.10023E-001	0.00000E+000	5	...........	1366.97
	479	96	-1.00010E-001	3.69220E-011	0.00000E+000	-9.99759E-002	0.00000E+000	5	...........	1366.97
	480	96.2	-9.00173E-002	3.91623E-011	0.00000E+000	-8.99784E-002	0.00000E+000	5	...........	1366.97
	481	96.4	-8.00121E-002	4.06960E-011	0.00000E+000	-7.99810E-002	0.00000E+000	5	...........	1366.97
	482	96.6	-7.00057E-002	4.26094E-011	0.00000E+000	-6.99836E-002	0.00000E+000	5	...........	1366.97
	483	96.8	-6.00476E-002	4.33960E-011	0.00000E+000	-5.99861E-002	0.00000E+000	5	...........	1366.97
	484	97	-5.00170E-002	4.40380E-011	0.00000E+000	-4.99887E-002	0.00000E+000	5	...........	1366.97
	485	97.2	-4.00415E-002	4.55464E-011	0.00000E+000	-3.99912E-002	0.00000E+000	5	...........	1366.97
	486	97.4	-3.00436E-002	4.76145E-011	0.00000E+000	-2.99938E-002	0.00000E+000	5	...........	1366.97
	487	97.6	-2.00391E-002	4.90255E-011	0.00000E+000	-1.99963E-002	0.00000E+000	5	...........	1366.97
	488	97.8	-1.00424E-002	5.02864E-011	0.00000E+000	-9.99890E-003	0.00000E+000	5	...........	1366.97
	489	98	-1.44709E-005	5.13659E-011	0.00000E+000	-1.47521E-006	0.00000E+000	5	...........	1366.97
	490	98.2	9.97373E-003	5.21336E-011	0.00000E+000	9.99597E-003	0.00000E+000	5	...........	1366.97
	491	98.4	1.99756E-002	5.28793E-011	0.00000E+000	1.99934E-002	0.00000E+000	5	...........	1366.97
	492	98.6	2.99883E-002	5.40818E-011	0.00000E+000	2.99909E-002	0.00000E+000	5	...........	1366.97
	493	98.8	3.99849E-002	5.45825E-011	0.00000E+000	3.99883E-002	0.00000E+000	5	...........	1366.97
	494	99	4.99816E-002	5.64402E-011	0.00000E+000	4.99857E-002	0.00000E+000	5	...........	1366.97
	495	99.2	5.99621E-002	5.71545E-011	0.00000E+000	5.99832E-002	0.00000E+000	5	...........	1366.97
	496	99.4	6.99718E-002	5.78018E-011	0.00000E+000	6.99806E-002	0.00000E+000	5	...........	1366.97
	497	99.6	7.99645E-002	5.81823E-011	0.00000E+000	7.99781E-002	0.00000E+000	5	...........	1366.97
	498	99.8	9.00221E-002	5.87289E-011	0.00000E+000	9.00255E-002	0.00000E+000	5	...........	1366.97
	499	100	1.00013E-001	5.88429E-011	0.00000E+000	1.00023E-001	0.00000E+000	5	...........	1366.97
	500	100.2	1.10013E-001	6.06501E-011	0.00000E+000	1.10020E-001	0.00000E+000	5	...........	1366.97
	501	100.4	1.20009E-001	6.01939E-011	0.00000E+000	1.20018E-001	0.00000E+000	5	...........	1366.97
	502	100.6	1.30018E-001	6.12044E-011	0.00000E+000	1.30015E-001	0.00000E+000	5	...........	1366.97
	503	100.8	1.39998E-001	6.19379E-011	0.00000E+000	1.40013E-001	0.00000E+000	5	...........	1366.97
	504	101	1.50003E-001	6.33623E-011	0.00000E+000	1.50010E-001	0.00000E+000	5	...........	1366.97
	505	101.2	1.60000E-001	6.35568E-011	0.00000E+000	1.60008E-001	0.00000E+000	5	...........	1366.97
	506	101.4	1.69995E-001	6.42510E-011	0.00000E+000	1.70005E-001	0.00000E+000	5	...........	1366.97
	507	101.6	1.79995E-001	6.47801E-011	0.00000E+000	1.80002E-001	0.00000E+000	5	...........	1366.97
	508	101.8	1.89999E-001	6.59605E-011	0.00000E+000	1.90000E-001	0.00000E+000	5	...........	1366.97
	509	102	1.99993E-001	6.61842E-011	0.00000E+000	1.99997E-001	0.00000E+000	5	...........	1366.97
	510	102.2	2.09990E-001	6.85154E-011	0.00000E+000	2.09995E-001	0.00000E+000	5	...........	1366.97
	511	102.4	2.19994E-001	6.96333E-011	0.00000E+000	2.19992E-001	0.00000E+000	5	...........	1366.97
	512	102.6	2.30017E-001	7.11634E-011	0.00000E+000	2.29990E-001	0.00000E+000	5	...........	1366.97
	513	102.8	2.39988E-001	7.19619E-011	0.00000E+000	2.39987E-001	0.00000E+000	5	...........	1366.97
	514	103	2.49986E-001	7.16371E-011	0.00000E+000	2.49985E-001	0.00000E+000	5	...........	1366.97
	515	103.2	2.59982E-001	7.28306E-011	0.00000E+000	2.59982E-001	0.00000E+000	5	...........	1366.97
	516	103.4	2.69977E-001	7.40667E-011	0.00000E+000	2.69979E-001	0.00000E+000	5	...........	1366.97
	517	103.6	2.79969E-001	7.44559E-011	0.00000E+000	2.79977E-001	0.00000E+000	5	...........	1366.97
	518	103.8	2.90024E-001	7.39658E-011	0.00000E+000	2.90024E-001	0.00000E+000	5	...........	1366.97
	519	104	3.00026E-001	7.40684E-011	0.00000E+000	3.00022E-001	0.00000E+000	5	...........	1366.97
	520	104.2	3.10051E-001	7.48681E-011	0.00000E+000	3.10019E-001	0.00000E+000	5	...........	1366.97
	521	104.4	3.20046E-001	7.53721E-011	0.00000E+000	3.20017E-001	0.00000E+000	5	...........	1366.97
	522	104.6	3.30027E-001	7.64602E-011	0.00000E+000	3.30014E-001	0.00000E+000	5	...........	1366.97
	523	104.8	3.40021E-001	7.61940E-011	0.00000E+000	3.40011E-001	0.00000E+000	5	...........	1366.97
	524	105	3.50011E-001	7.63701E-011	0.00000E+000	3.50009E-001	0.00000E+000	5	...........	1366.97
	525	105.2	3.60015E-001	7.69097E-011	0.00000E+000	3.60006E-001	0.00000E+000	5	...........	1366.97
	526	105.4	3.70007E-001	7.73895E-011	0.00000E+000	3.70004E-001	0.00000E+000	5	...........	1366.97
	527	105.6	3.80004E-001	7.75158E-011	0.00000E+000	3.80001E-001	0.00000E+000	5	...........	1366.97
	528	105.8	3.90018E-001	7.56995E-011	0.00000E+000	3.89999E-001	0.00000E+000	5	...........	1366.97
	529	106	4.00011E-001	7.40253E-011	0.00000E+000	3.99996E-001	0.00000E+000	5	...........	1366.97
	530	106.2	4.10022E-001	7.39435E-011	0.00000E+000	4.09994E-001	0.00000E+000	5	...........	1366.97
	531	106.4	4.20012E-001	7.44038E-011	0.00000E+000	4.19991E-001	0.00000E+000	5	...........	1366.97
	532	106.6	4.30015E-001	7.40845E-011	0.00000E+000	4.29988E-001	0.00000E+000	5	...........	1366.97
	533	106.8	4.40014E-001	7.29947E-011	0.00000E+000	4.39986E-001	0.00000E+000	5	...........	1366.97
	534	107	4.50009E-001	7.05125E-011	0.00000E+000	4.49983E-001	0.00000E+000	5	...........	1366.97
	535	107.2	4.59999E-001	7.12580E-011	0.00000E+000	4.59981E-001	0.00000E+000	5	...........	1366.97
	536	107.4	4.69995E-001	7.04825E-011	0.00000E+000	4.69978E-001	0.00000E+000	5	...........	1366.97
	537	107.6	4.80006E-001	6.79668E-011	0.00000E+000	4.79976E-001	0.00000E+000	5	...........	1366.97
	538	107.8	4.90056E-001	6.87137E-011	0.00000E+000	4.90023E-001	0.00000E+000	5	...........	1366.97
	539	108	5.00048E-001	6.79482E-011	0.00000E+000	5.00021E-001	0.00000E+000	5	...........	1366.97
	540	108.2	5.10034E-001	6.88236E-011	0.00000E+000	5.10018E-001	0.00000E+000	5	...........	1366.97
	541	108.4	5.20038E-001	6.76753E-011	0.00000E+000	5.20015E-001	0.00000E+000	5	...........	1366.97
	542	108.6	5.30042E-001	6.80586E-011	0.00000E+000	5.30013E-001	0.00000E+000	5	...........	1366.97
	543	108.8	5.40047E-001	6.74119E-011	0.00000E+000	5.40010E-001	0.00000E+000	5	...........	1366.97
	544	109	5.50053E-001	6.60153E-011	0.00000E+000	5.50008E-001	0.00000E+000	5	...........	1366.97
	545	109.2	5.60038E-001	6.59878E-011	0.00000E+000	5.60005E-001	0.00000E+000	5	...........	1366.97
	546	109.4	5.70051E-001	6.48955E-011	0.00000E+000	5.70003E-001	0.00000E+000	5	...........	1366.97
	547	109.6	5.80034E-001	6.36819E-011	0.00000E+000	5.80000E-001	0.00000E+000	5	...........	1366.97
	548	109.8	5.90029E-001	6.46313E-011	0.00000E+000	5.89998E-001	0.00000E+000	5	...........	1366.97
	549	110	6.00009E-001	6.43648E-011	0.00000E+000	5.99995E-001	0.00000E+000	5	...........	1366.89
	550	110.2	6.10035E-001	6.38853E-011	0.00000E+000	6.09992E-001	0.00000E+000	5	...........	1366.88
	551	110.4	6.20027E-001	6.38605E-011	0.00000E+000	6.19990E-001	0.00000E+000	5	...........	1366.88
	552	110.6	6.30035E-001	6.40972E-011	0.00000E+000	6.29987E-001	0.00000E+000	5	...........	1366.88
	553	110.8	6.40039E-001	6.36021E-011	0.00000E+000	6.39985E-001	0.00000E+000	5	...........	1366.88
	554	111	6.50035E-001	6.18589E-011	0.00000E+000	6.49982E-001	0.00000E+000	5	...........	1366.95
	555	111.2	6.60020E-001	6.19827E-011	0.00000E+000	6.59980E-001	0.00000E+000	5	...........	1366.97
	556	111.4	6.70009E-001	6.15585E-011	0.00000E+000	6.69977E-001	0.00000E+000	5	...........	1366.97
	557	111.6	6.80075E-001	6.19182E-011	0.00000E+000	6.80025E-001	0.00000E+000	5	...........	1366.97
	558	111.8	6.90057E-001	6.30967E-011	0.00000E+000	6.90022E-001	0.00000E+000	5	...........	1366.97
	559	112	7.00066E-001	6.51027E-011	0.00000E+000	7.00019E-001	0.00000E+000	5	...........	1366.97
	560	112.2	7.10088E-001	6.48646E-011	0.00000E+000	7.10017E-001	0.00000E+000	5	...........	1366.97
	561	112.4	7.20070E-001	6.52682E-011	0.00000E+000	7.20014E-001	0.00000E+000	5	...........	1366.97
	562	112.6	7.30091E-001	6.61513E-011	0.00000E+000	7.30012E-001	0.00000E+000	5	...........	1366.97
	563	112.8	7.40068E-001	6.88219E-011	0.00000E+000	7.40009E-001	0.00000E+000	5	...........	1366.97
	564	113	7.50063E-001	7.14310E-011	0.00000E+000	7.50007E-001	0.00000E+000	5	...........	1366.97
	565	113.2	7.60043E-001	7.62511E-011	0.00000E+000	7.60004E-001	0.00000E+000	5	...........	1366.97
	566	113.4	7.70062E-001	8.30978E-011	0.00000E+000	7.70001E-001	0.00000E+000	5	...........	1366.97
	567	113.6	7.80036E-001	9.09578E-011	0.00000E+000	7.79999E-001	0.00000E+000	5	...........	1366.97
	568	113.8	7.90047E-001	1.02670E-010	0.00000E+000	7.89996E-001	0.00000E+000	5	...........	1366.97
	569	114	8.00054E-001	1.17240E-010	0.00000E+000	7.99994E-001	0.00000E+000	5	...........	1366.97
CURVE3	TABLE
	Pt	T	Vf	Im	Vu	Sig	Ach	IERange	Over	Temp
	#	s	V vs. Ref.	A	V	V	V	#	bits	deg C
	570	114.2	8.10042E-001	1.37888E-010	0.00000E+000	8.09991E-001	0.00000E+000	5	...........	1366.97
	571	114.4	8.20033E-001	1.67583E-010	0.00000E+000	8.19989E-001	0.00000E+000	5	...........	1366.97
	572	114.6	8.30033E-001	2.03369E-010	0.00000E+000	8.29986E-001	0.00000E+000	5	...........	1366.97
	573	114.8	8.40032E-001	2.47473E-010	0.00000E+000	8.39983E-001	0.00000E+000	5	...........	1366.97
	574	115	8.50029E-001	2.93401E-010	0.00000E+000	8.49981E-001	0.00000E+000	5	...........	1366.97
	575	115.2	8.60023E-001	3.45724E-010	0.00000E+000	8.59978E-001	0.00000E+000	5	...........	1366.97
	576	115.4	8.70053E-001	4.03447E-010	0.00000E+000	8.69976E-001	0.00000E+000	5	...........	1366.97
	577	115.6	8.80087E-001	4.68383E-010	0.00000E+000	8.80023E-001	0.00000E+000	5	...........	1366.97
	578	115.8	8.90081E-001	5.52272E-010	0.00000E+000	8.90021E-001	0.00000E+000	5	...........	1366.97