File: Test_Data_Files/20250424_K_CHI105_12,5umAu_E000_PBSarg_CV100.DTA
EXPLAIN
TAG	CV
TITLE	LABEL	Cyclic Voltammetry	Test &Identifier
DATE	LABEL	4/24/2025	Date
TIME	LABEL	13:35:30	Time
NOTES	NOTES	3	&Notes...

PSTAT	PSTAT	IFC1010-32247	Potentiostat
VINIT	POTEN	0.00000E+000	T	Initial &E (V)
VLIMIT1	POTEN	-6.00000E-001	F	Scan Limit &1 (V)
VLIMIT2	POTEN	8.00000E-001	F	Scan Limit &2 (V)
VFINAL	POTEN	0.00000E+000	T	Final &E (V)
SCANRATE	QUANT	9.99998E+001	&Scan Rate (mV/s)
STEPSIZE	QUANT	1.00000E+001	St&ep Size (mV)
CYCLES	IQUANT	3	C&ycles (#)
IMODE	SELECTOR	1	I/E Range &Mode
IRANGE	QUANT	1.00000E-008	&Max Current (mA)
AREA	QUANT	1.00000E+000	Electrode &Area (cm^2)
ELECTRODETYPE	SELECTOR	0	Electrode Type
STRIPPING	TOGGLE	F	Used for Stripping
CONDIT	TWOPARAM	F	1.50000E+001	0.00000E+000	Conditionin&g	Time(s)	E(V)
DELAY	TWOPARAM	T	1.50000E+001	0.00000E+000	Init. De&lay	Time(s)	Stab.(mV/s)
EQDELAY	QUANT	0.00000E+000	Equil. &Time (s)
IRCOMP	SELECTOR	0	IRCom&p
PFCOR	QUANT	5.00000E+001	PF Corr. (ohm)
SAMPLINGMODE	SELECTOR	2	Sampling &Mode
OCVCURVE	TABLE	58
	Pt	T	Vf	Vm	Ach	Over	Temp
	#	s	V vs. Ref.	V	V	bits	deg C
	0	0.258333	3.31310E-001	3.31310E-001	0.00000E+000	...........	1367.65
	1	0.516667	3.31339E-001	3.32802E-001	0.00000E+000	...........	1367.65
	2	0.775	3.31515E-001	3.34294E-001	0.00000E+000	...........	1367.65
	3	1.03333	3.32021E-001	3.35806E-001	0.00000E+000	...........	1367.65
	4	1.29167	3.32947E-001	3.37509E-001	0.00000E+000	...........	1367.65
	5	1.55	3.34233E-001	3.39408E-001	0.00000E+000	...........	1367.65
	6	1.80833	3.35773E-001	3.41507E-001	0.00000E+000	...........	1367.65
	7	2.06667	3.37500E-001	3.43699E-001	0.00000E+000	...........	1367.65
	8	2.325	3.39385E-001	3.45672E-001	0.00000E+000	...........	1367.65
	9	2.58333	3.41377E-001	3.47237E-001	0.00000E+000	...........	1367.65
	10	2.84167	3.43376E-001	3.48736E-001	0.00000E+000	...........	1367.65
	11	3.1	3.45266E-001	3.50114E-001	0.00000E+000	...........	1367.65
	12	3.35833	3.46982E-001	3.51255E-001	0.00000E+000	...........	1367.65
	13	3.61667	3.48515E-001	3.52359E-001	0.00000E+000	...........	1367.65
	14	3.875	3.49893E-001	3.54043E-001	0.00000E+000	...........	1367.65
	15	4.13333	3.51203E-001	3.55903E-001	0.00000E+000	...........	1367.65
	16	4.39167	3.52577E-001	3.57879E-001	0.00000E+000	...........	1367.65
	17	4.65	3.54119E-001	3.59721E-001	0.00000E+000	...........	1367.69
	18	4.90833	3.55835E-001	3.61370E-001	0.00000E+000	...........	1367.74
	19	5.16667	3.57650E-001	3.63318E-001	0.00000E+000	...........	1367.74
	20	5.425	3.59494E-001	3.65516E-001	0.00000E+000	...........	1367.74
	21	5.68333	3.61364E-001	3.67288E-001	0.00000E+000	...........	1367.65
	22	5.94167	3.63270E-001	3.68864E-001	0.00000E+000	...........	1367.65
	23	6.2	3.65168E-001	3.70446E-001	0.00000E+000	...........	1367.65
	24	6.45833	3.66990E-001	3.72301E-001	0.00000E+000	...........	1367.65
	25	6.71667	3.68734E-001	3.74206E-001	0.00000E+000	...........	1367.65
	26	6.975	3.70462E-001	3.76072E-001	0.00000E+000	...........	1367.65
	27	7.23333	3.72233E-001	3.77927E-001	0.00000E+000	...........	1367.65
	28	7.49167	3.74054E-001	3.79611E-001	0.00000E+000	...........	1367.65
	29	7.75	3.75883E-001	3.81054E-001	0.00000E+000	...........	1367.65
	30	8.00833	3.77652E-001	3.82090E-001	0.00000E+000	...........	1367.65
	31	8.26667	3.79274E-001	3.82942E-001	0.00000E+000	...........	1367.65
	32	8.525	3.80685E-001	3.84061E-001	0.00000E+000	...........	1367.65
	33	8.78333	3.81895E-001	3.85366E-001	0.00000E+000	...........	1367.65
	34	9.04167	3.83005E-001	3.86743E-001	0.00000E+000	...........	1367.65
	35	9.3	3.84135E-001	3.88141E-001	0.00000E+000	...........	1367.65
	36	9.5583	3.85349E-001	3.89318E-001	0.00000E+000	...........	1367.65
	37	9.8167	3.86634E-001	3.90623E-001	0.00000E+000	...........	1367.65
	38	10.075	3.87943E-001	3.92028E-001	0.00000E+000	...........	1367.65
	39	10.3333	3.89257E-001	3.93471E-001	0.00000E+000	...........	1367.65
	40	10.5917	3.90592E-001	3.95035E-001	0.00000E+000	...........	1367.65
	41	10.85	3.91984E-001	3.96990E-001	0.00000E+000	...........	1367.65
	42	11.1083	3.93476E-001	3.98811E-001	0.00000E+000	...........	1367.65
	43	11.3667	3.95097E-001	4.00511E-001	0.00000E+000	...........	1367.65
	44	11.625	3.96820E-001	4.02140E-001	0.00000E+000	...........	1367.65
	45	11.8833	3.98578E-001	4.03755E-001	0.00000E+000	...........	1367.31
	46	12.1417	4.00312E-001	4.05614E-001	0.00000E+000	...........	1367.31
	47	12.4	4.02021E-001	4.07494E-001	0.00000E+000	...........	1367.31
	48	12.6583	4.03745E-001	4.09241E-001	0.00000E+000	...........	1367.26
	49	12.9167	4.05508E-001	4.11009E-001	0.00000E+000	...........	1367.22
	50	13.175	4.07304E-001	4.13120E-001	0.00000E+000	...........	1367.22
	51	13.4333	4.09138E-001	4.15410E-001	0.00000E+000	...........	1367.22
	52	13.6917	4.11055E-001	4.17608E-001	0.00000E+000	...........	1367.57
	53	13.95	4.13083E-001	4.19525E-001	0.00000E+000	...........	1367.57
	54	14.2083	4.15184E-001	4.21361E-001	0.00000E+000	...........	1367.57
	55	14.4667	4.17269E-001	4.23127E-001	0.00000E+000	...........	1367.57
	56	14.725	4.19275E-001	4.25334E-001	0.00000E+000	...........	1367.65
	57	14.9833	4.21228E-001	4.27744E-001	0.00000E+000	...........	1367.65
EOC	QUANT	0.4212279	Open Circuit (V)
PSTATMODEL	IQUANT	64	Pstat Model
PSTATSECTION	LABEL	IFC1010-32247	Pstat Section
PSTATSERIALNO	LABEL	32247	Pstat Serial Number
CTRLMODE	IQUANT	1	Control Mode
ELECTROMETER	IQUANT	0	RE=0 or CS=1
IESTAB	IQUANT	2	I/E Stability
CASPEED	IQUANT	4	Control Amp Speed
CONVENTION	IQUANT	1	Current Convention
ICHRANGE	IQUANT	2	Ich Range
ICHRANGEMODE	TOGGLE	F	Ich Auto Range
ICHOFFSETENABLE	TOGGLE	F	Ich Offset Enable
ICHOFFSET	QUANT	0	Ich Offset (V)
ICHFILTER	IQUANT	3	Ich Filter
VCHRANGE	IQUANT	2	Vch Range
VCHRANGEMODE	TOGGLE	F	Vch Auto Range
VCHOFFSETENABLE	TOGGLE	F	Vch Offset Enable
VCHOFFSET	QUANT	0	Vch Offset (V)
VCHFILTER	IQUANT	3	Vch Filter
IERANGELOWERLIMIT	IQUANT	4	I/E Range Lower Limit
IERANGEMODE	TOGGLE	F	I/E AutoRange
IERANGE	IQUANT	4	I/E Range
ACHSELECT	IQUANT	0	Ach Select
ACHRANGE	IQUANT	2	Ach Range
ACHOFFSETENABLE	TOGGLE	F	Ach Offset Enable
ACHOFFSET	QUANT	0	Ach Offset (V)
ACHFILTER	IQUANT	1	Ach Filter
SENSECABLEID	IQUANT	14	Sense Cable ID
PWRCABLEID	IQUANT	14	Power Cable ID
DCCALDATE	LABEL	11/18/2024	DC Calibration Date
ACCALDATE	LABEL	4/18/2022	AC Calibration Date
FRAMEWORKVERSION	LABEL	7.10.3	Framework Version
INSTRUMENTVERSION	LABEL	4.91	Instrument Version
COMMVERSION	LABEL	3.10	Communications Version
CPUPLDVERSION	LABEL	2.22	CPU PLD Version
CTRLPLDVERSION	LABEL	0.00	CTRL PLD Version
PSTATPLDVERSION	LABEL	0.00	PSTAT PLD Version
CURVE1	TABLE
	Pt	T	Vf	Im	Vu	Sig	Ach	IERange	Over	Temp
	#	s	V vs. Ref.	A	V	V	V	#	bits	deg C
	0	0.1	4.21304E-001	-1.42727E-011	0.00000E+000	4.21241E-001	0.00000E+000	4	...........	1367.65
	1	0.2	4.11338E-001	-2.83864E-011	0.00000E+000	4.11244E-001	0.00000E+000	4	...........	1367.65
	2	0.3	4.01333E-001	-3.30317E-011	0.00000E+000	4.01246E-001	0.00000E+000	4	...........	1367.65
	3	0.4	3.91326E-001	-3.63762E-011	0.00000E+000	3.91249E-001	0.00000E+000	4	...........	1367.65
	4	0.5	3.81333E-001	-3.98652E-011	0.00000E+000	3.81251E-001	0.00000E+000	4	...........	1367.65
	5	0.6	3.71303E-001	-4.32576E-011	0.00000E+000	3.71204E-001	0.00000E+000	4	...........	1367.65
	6	0.7	3.61274E-001	-4.63878E-011	0.00000E+000	3.61207E-001	0.00000E+000	4	...........	1367.65
	7	0.8	3.51275E-001	-4.98555E-011	0.00000E+000	3.51209E-001	0.00000E+000	4	...........	1367.65
	8	0.9	3.41287E-001	-5.30834E-011	0.00000E+000	3.41212E-001	0.00000E+000	4	...........	1367.65
	9	1	3.31291E-001	-5.61015E-011	0.00000E+000	3.31214E-001	0.00000E+000	4	...........	1367.58
	10	1.1	3.21312E-001	-5.85382E-011	0.00000E+000	3.21217E-001	0.00000E+000	4	...........	1367.57
	11	1.2	3.11311E-001	-6.11362E-011	0.00000E+000	3.11219E-001	0.00000E+000	4	...........	1367.57
	12	1.3	3.01316E-001	-6.35665E-011	0.00000E+000	3.01222E-001	0.00000E+000	4	...........	1367.57
	13	1.4	2.91313E-001	-6.58002E-011	0.00000E+000	2.91224E-001	0.00000E+000	4	...........	1367.57
	14	1.5	2.81319E-001	-6.78035E-011	0.00000E+000	2.81227E-001	0.00000E+000	4	...........	1367.57
	15	1.6	2.71306E-001	-6.99883E-011	0.00000E+000	2.71230E-001	0.00000E+000	4	...........	1367.57
	16	1.7	2.61307E-001	-7.18644E-011	0.00000E+000	2.61232E-001	0.00000E+000	4	...........	1367.57
	17	1.8	2.51304E-001	-7.35450E-011	0.00000E+000	2.51235E-001	0.00000E+000	4	...........	1367.57
	18	1.9	2.41306E-001	-7.52051E-011	0.00000E+000	2.41237E-001	0.00000E+000	4	...........	1367.57
	19	2	2.31332E-001	-7.67656E-011	0.00000E+000	2.31240E-001	0.00000E+000	4	...........	1366.72
	20	2.1	2.21320E-001	-7.81074E-011	0.00000E+000	2.21242E-001	0.00000E+000	4	...........	1366.62
	21	2.2	2.11309E-001	-7.97329E-011	0.00000E+000	2.11245E-001	0.00000E+000	4	...........	1366.62
	22	2.3	2.01308E-001	-8.11316E-011	0.00000E+000	2.01247E-001	0.00000E+000	4	...........	1366.62
	23	2.4	1.91312E-001	-8.26807E-011	0.00000E+000	1.91250E-001	0.00000E+000	4	...........	1366.62
	24	2.5	1.81333E-001	-8.39282E-011	0.00000E+000	1.81253E-001	0.00000E+000	4	...........	1366.62
	25	2.6	1.71282E-001	-8.53880E-011	0.00000E+000	1.71205E-001	0.00000E+000	4	...........	1366.62
	26	2.7	1.61281E-001	-8.64932E-011	0.00000E+000	1.61208E-001	0.00000E+000	4	...........	1366.62
	27	2.8	1.51271E-001	-8.77133E-011	0.00000E+000	1.51210E-001	0.00000E+000	4	...........	1366.62
	28	2.9	1.41295E-001	-8.88623E-011	0.00000E+000	1.41213E-001	0.00000E+000	4	...........	1366.62
	29	3	1.31290E-001	-8.99556E-011	0.00000E+000	1.31215E-001	0.00000E+000	4	...........	1366.62
	30	3.1	1.21289E-001	-9.12108E-011	0.00000E+000	1.21218E-001	0.00000E+000	4	...........	1366.62
	31	3.2	1.11273E-001	-9.25524E-011	0.00000E+000	1.11221E-001	0.00000E+000	4	...........	1366.62
	32	3.3	1.01273E-001	-9.39585E-011	0.00000E+000	1.01223E-001	0.00000E+000	4	...........	1366.62
	33	3.4	9.12877E-002	-9.54151E-011	0.00000E+000	9.12256E-002	0.00000E+000	4	...........	1366.62
	34	3.5	8.13069E-002	-9.68112E-011	0.00000E+000	8.12282E-002	0.00000E+000	4	...........	1366.62
	35	3.6	7.12948E-002	-9.86008E-011	0.00000E+000	7.12307E-002	0.00000E+000	4	...........	1366.62
	36	3.7	6.12863E-002	-1.00280E-010	0.00000E+000	6.12333E-002	0.00000E+000	4	...........	1366.62
	37	3.8	5.13075E-002	-1.01919E-010	0.00000E+000	5.12359E-002	0.00000E+000	4	...........	1366.62
	38	3.9	4.13197E-002	-1.03581E-010	0.00000E+000	4.12384E-002	0.00000E+000	4	...........	1366.62
	39	4	3.13148E-002	-1.05499E-010	0.00000E+000	3.12410E-002	0.00000E+000	4	...........	1366.70
	40	4.1	2.13107E-002	-1.07569E-010	0.00000E+000	2.12435E-002	0.00000E+000	4	...........	1366.71
	41	4.2	1.12976E-002	-1.09569E-010	0.00000E+000	1.12461E-002	0.00000E+000	4	...........	1366.71
	42	4.3	1.31541E-003	-1.11463E-010	0.00000E+000	1.24865E-003	0.00000E+000	4	...........	1366.71
	43	4.4	-8.71459E-003	-1.13335E-010	0.00000E+000	-8.74878E-003	0.00000E+000	4	...........	1366.71
	44	4.5	-1.87639E-002	-1.15437E-010	0.00000E+000	-1.87962E-002	0.00000E+000	4	...........	1366.71
	45	4.6	-2.87656E-002	-1.17226E-010	0.00000E+000	-2.87937E-002	0.00000E+000	4	...........	1366.71
	46	4.7	-3.87546E-002	-1.19178E-010	0.00000E+000	-3.87911E-002	0.00000E+000	4	...........	1366.71
	47	4.8	-4.87467E-002	-1.20791E-010	0.00000E+000	-4.87885E-002	0.00000E+000	4	...........	1366.71
	48	4.9	-5.87587E-002	-1.22702E-010	0.00000E+000	-5.87860E-002	0.00000E+000	4	...........	1366.71
	49	5	-6.87440E-002	-1.24737E-010	0.00000E+000	-6.87834E-002	0.00000E+000	4	...........	1367.02
	50	5.1	-7.87592E-002	-1.26593E-010	0.00000E+000	-7.87809E-002	0.00000E+000	4	...........	1367.05
	51	5.2	-8.87492E-002	-1.28683E-010	0.00000E+000	-8.87783E-002	0.00000E+000	4	...........	1367.05
	52	5.3	-9.87385E-002	-1.30238E-010	0.00000E+000	-9.87757E-002	0.00000E+000	4	...........	1367.05
	53	5.4	-1.08737E-001	-1.32126E-010	0.00000E+000	-1.08773E-001	0.00000E+000	4	...........	1367.05
	54	5.5	-1.18725E-001	-1.33928E-010	0.00000E+000	-1.18771E-001	0.00000E+000	4	...........	1367.05
	55	5.6	-1.28742E-001	-1.35514E-010	0.00000E+000	-1.28768E-001	0.00000E+000	4	...........	1367.05
	56	5.7	-1.38712E-001	-1.37635E-010	0.00000E+000	-1.38765E-001	0.00000E+000	4	...........	1367.05
	57	5.8	-1.48728E-001	-1.39468E-010	0.00000E+000	-1.48763E-001	0.00000E+000	4	...........	1367.05
	58	5.9	-1.58731E-001	-1.41610E-010	0.00000E+000	-1.58760E-001	0.00000E+000	4	...........	1367.05
	59	6	-1.68729E-001	-1.43842E-010	0.00000E+000	-1.68758E-001	0.00000E+000	4	...........	1366.66
	60	6.1	-1.78713E-001	-1.46041E-010	0.00000E+000	-1.78755E-001	0.00000E+000	4	...........	1366.62
	61	6.2	-1.88712E-001	-1.48419E-010	0.00000E+000	-1.88753E-001	0.00000E+000	4	...........	1366.62
	62	6.3	-1.98710E-001	-1.50927E-010	0.00000E+000	-1.98750E-001	0.00000E+000	4	...........	1366.62
	63	6.4	-2.08713E-001	-1.53313E-010	0.00000E+000	-2.08748E-001	0.00000E+000	4	...........	1366.62
	64	6.5	-2.18763E-001	-1.55501E-010	0.00000E+000	-2.18795E-001	0.00000E+000	4	...........	1366.62
	65	6.6	-2.28756E-001	-1.57482E-010	0.00000E+000	-2.28792E-001	0.00000E+000	4	...........	1366.62
	66	6.7	-2.38748E-001	-1.59454E-010	0.00000E+000	-2.38790E-001	0.00000E+000	4	...........	1366.62
	67	6.8	-2.48760E-001	-1.61944E-010	0.00000E+000	-2.48787E-001	0.00000E+000	4	...........	1366.62
	68	6.9	-2.58758E-001	-1.64088E-010	0.00000E+000	-2.58785E-001	0.00000E+000	4	...........	1366.62
	69	7	-2.68747E-001	-1.66104E-010	0.00000E+000	-2.68782E-001	0.00000E+000	4	...........	1366.55
	70	7.1	-2.78741E-001	-1.67790E-010	0.00000E+000	-2.78780E-001	0.00000E+000	4	...........	1366.54
	71	7.2	-2.88749E-001	-1.69244E-010	0.00000E+000	-2.88777E-001	0.00000E+000	4	...........	1366.54
	72	7.3	-2.98752E-001	-1.70875E-010	0.00000E+000	-2.98775E-001	0.00000E+000	4	...........	1366.54
	73	7.4	-3.08758E-001	-1.72881E-010	0.00000E+000	-3.08772E-001	0.00000E+000	4	...........	1366.54
	74	7.5	-3.18716E-001	-1.74821E-010	0.00000E+000	-3.18769E-001	0.00000E+000	4	...........	1366.54
	75	7.6	-3.28720E-001	-1.75999E-010	0.00000E+000	-3.28767E-001	0.00000E+000	4	...........	1366.54
	76	7.7	-3.38723E-001	-1.77474E-010	0.00000E+000	-3.38764E-001	0.00000E+000	4	...........	1366.54
	77	7.8	-3.48732E-001	-1.78792E-010	0.00000E+000	-3.48762E-001	0.00000E+000	4	...........	1366.54
	78	7.9	-3.58713E-001	-1.80218E-010	0.00000E+000	-3.58759E-001	0.00000E+000	4	...........	1366.54
	79	8	-3.68718E-001	-1.81246E-010	0.00000E+000	-3.68757E-001	0.00000E+000	4	...........	1366.54
	80	8.1	-3.78719E-001	-1.82658E-010	0.00000E+000	-3.78754E-001	0.00000E+000	4	...........	1366.54
	81	8.2	-3.88717E-001	-1.83930E-010	0.00000E+000	-3.88752E-001	0.00000E+000	4	...........	1366.54
	82	8.3	-3.98718E-001	-1.85582E-010	0.00000E+000	-3.98749E-001	0.00000E+000	4	...........	1366.54
	83	8.4	-4.08765E-001	-1.87178E-010	0.00000E+000	-4.08796E-001	0.00000E+000	4	...........	1366.54
	84	8.5	-4.18757E-001	-1.88875E-010	0.00000E+000	-4.18794E-001	0.00000E+000	4	...........	1366.54
	85	8.6	-4.28759E-001	-1.90415E-010	0.00000E+000	-4.28791E-001	0.00000E+000	4	...........	1366.54
	86	8.7	-4.38770E-001	-1.91600E-010	0.00000E+000	-4.38789E-001	0.00000E+000	4	...........	1366.54
	87	8.8	-4.48780E-001	-1.93383E-010	0.00000E+000	-4.48786E-001	0.00000E+000	4	...........	1366.54
	88	8.9	-4.58766E-001	-1.95332E-010	0.00000E+000	-4.58784E-001	0.00000E+000	4	...........	1366.54
	89	9	-4.68767E-001	-1.97169E-010	0.00000E+000	-4.68781E-001	0.00000E+000	4	...........	1366.62
	90	9.1	-4.78758E-001	-1.99465E-010	0.00000E+000	-4.78778E-001	0.00000E+000	4	...........	1366.62
	91	9.2	-4.88761E-001	-2.01103E-010	0.00000E+000	-4.88776E-001	0.00000E+000	4	...........	1366.62
	92	9.3	-4.98746E-001	-2.02838E-010	0.00000E+000	-4.98773E-001	0.00000E+000	4	...........	1366.62
	93	9.4	-5.08741E-001	-2.04704E-010	0.00000E+000	-5.08771E-001	0.00000E+000	4	...........	1366.62
	94	9.5	-5.18728E-001	-2.07348E-010	0.00000E+000	-5.18768E-001	0.00000E+000	4	...........	1366.62
	95	9.6	-5.28734E-001	-2.10276E-010	0.00000E+000	-5.28766E-001	0.00000E+000	4	...........	1366.62
	96	9.7	-5.38735E-001	-2.12145E-010	0.00000E+000	-5.38763E-001	0.00000E+000	4	...........	1366.62
	97	9.8	-5.48725E-001	-2.14020E-010	0.00000E+000	-5.48761E-001	0.00000E+000	4	...........	1366.62
	98	9.9	-5.58721E-001	-2.16432E-010	0.00000E+000	-5.58758E-001	0.00000E+000	4	...........	1366.62
	99	10	-5.68725E-001	-2.19139E-010	0.00000E+000	-5.68755E-001	0.00000E+000	4	...........	1366.62
	100	10.1	-5.78724E-001	-2.21582E-010	0.00000E+000	-5.78753E-001	0.00000E+000	4	...........	1366.62
	101	10.2	-5.88714E-001	-2.25149E-010	0.00000E+000	-5.88750E-001	0.00000E+000	4	...........	1366.62
	102	10.3	-5.98726E-001	-2.27772E-010	0.00000E+000	-5.98748E-001	0.00000E+000	4	...........	1366.62
	103	10.4	-5.88764E-001	-1.96929E-010	0.00000E+000	-5.88750E-001	0.00000E+000	4	...........	1366.62
	104	10.5	-5.78767E-001	-1.78557E-010	0.00000E+000	-5.78753E-001	0.00000E+000	4	...........	1366.62
	105	10.6	-5.68787E-001	-1.63816E-010	0.00000E+000	-5.68755E-001	0.00000E+000	4	...........	1366.62
	106	10.7	-5.58792E-001	-1.50840E-010	0.00000E+000	-5.58758E-001	0.00000E+000	4	...........	1366.62
	107	10.8	-5.48785E-001	-1.39476E-010	0.00000E+000	-5.48761E-001	0.00000E+000	4	...........	1366.62
	108	10.9	-5.38793E-001	-1.29228E-010	0.00000E+000	-5.38763E-001	0.00000E+000	4	...........	1366.62
	109	11	-5.28779E-001	-1.18970E-010	0.00000E+000	-5.28766E-001	0.00000E+000	4	...........	1366.62
	110	11.1	-5.18777E-001	-1.09258E-010	0.00000E+000	-5.18768E-001	0.00000E+000	4	...........	1366.62
	111	11.2	-5.08780E-001	-1.01448E-010	0.00000E+000	-5.08771E-001	0.00000E+000	4	...........	1366.62
	112	11.3	-4.98783E-001	-9.29314E-011	0.00000E+000	-4.98773E-001	0.00000E+000	4	...........	1366.62
	113	11.4	-4.88812E-001	-8.51603E-011	0.00000E+000	-4.88776E-001	0.00000E+000	4	...........	1366.62
	114	11.5	-4.78816E-001	-7.79889E-011	0.00000E+000	-4.78778E-001	0.00000E+000	4	...........	1366.62
	115	11.6	-4.68819E-001	-7.07406E-011	0.00000E+000	-4.68781E-001	0.00000E+000	4	...........	1366.62
	116	11.7	-4.58808E-001	-6.43418E-011	0.00000E+000	-4.58784E-001	0.00000E+000	4	...........	1366.62
	117	11.8	-4.48827E-001	-5.84286E-011	0.00000E+000	-4.48786E-001	0.00000E+000	4	...........	1366.62
	118	11.9	-4.38823E-001	-5.17721E-011	0.00000E+000	-4.38789E-001	0.00000E+000	4	...........	1366.62
	119	12	-4.28820E-001	-4.50535E-011	0.00000E+000	-4.28791E-001	0.00000E+000	4	...........	1366.54
	120	12.1	-4.18822E-001	-3.92566E-011	0.00000E+000	-4.18794E-001	0.00000E+000	4	...........	1366.54
	121	12.2	-4.08816E-001	-3.48939E-011	0.00000E+000	-4.08796E-001	0.00000E+000	4	...........	1366.54
	122	12.3	-3.98761E-001	-3.10291E-011	0.00000E+000	-3.98749E-001	0.00000E+000	4	...........	1366.54
	123	12.4	-3.88761E-001	-2.70808E-011	0.00000E+000	-3.88752E-001	0.00000E+000	4	...........	1366.54
	124	12.5	-3.78763E-001	-2.28137E-011	0.00000E+000	-3.78754E-001	0.00000E+000	4	...........	1366.54
	125	12.6	-3.68765E-001	-1.88609E-011	0.00000E+000	-3.68757E-001	0.00000E+000	4	...........	1366.54
	126	12.7	-3.58761E-001	-1.56697E-011	0.00000E+000	-3.58759E-001	0.00000E+000	4	...........	1366.54
	127	12.8	-3.48777E-001	-1.24961E-011	0.00000E+000	-3.48762E-001	0.00000E+000	4	...........	1366.54
	128	12.9	-3.38768E-001	-8.93433E-012	0.00000E+000	-3.38764E-001	0.00000E+000	4	...........	1366.54
	129	13	-3.28770E-001	-5.11772E-012	0.00000E+000	-3.28767E-001	0.00000E+000	4	...........	1366.62
	130	13.1	-3.18768E-001	-1.52086E-012	0.00000E+000	-3.18769E-001	0.00000E+000	4	...........	1366.62
	131	13.2	-3.08811E-001	2.07600E-012	0.00000E+000	-3.08772E-001	0.00000E+000	4	...........	1366.62
	132	13.3	-2.98792E-001	6.24639E-012	0.00000E+000	-2.98775E-001	0.00000E+000	4	...........	1366.62
	133	13.4	-2.88799E-001	1.00298E-011	0.00000E+000	-2.88777E-001	0.00000E+000	4	...........	1366.62
	134	13.5	-2.78781E-001	1.32083E-011	0.00000E+000	-2.78780E-001	0.00000E+000	4	...........	1366.62
	135	13.6	-2.68790E-001	1.66304E-011	0.00000E+000	-2.68782E-001	0.00000E+000	4	...........	1366.62
	136	13.7	-2.58793E-001	1.99231E-011	0.00000E+000	-2.58785E-001	0.00000E+000	4	...........	1366.62
	137	13.8	-2.48795E-001	2.32031E-011	0.00000E+000	-2.48787E-001	0.00000E+000	4	...........	1366.62
	138	13.9	-2.38798E-001	2.66961E-011	0.00000E+000	-2.38790E-001	0.00000E+000	4	...........	1366.62
	139	14	-2.28795E-001	2.96894E-011	0.00000E+000	-2.28792E-001	0.00000E+000	4	...........	1366.62
	140	14.1	-2.18817E-001	3.23938E-011	0.00000E+000	-2.18795E-001	0.00000E+000	4	...........	1366.62
	141	14.2	-2.08775E-001	3.46065E-011	0.00000E+000	-2.08748E-001	0.00000E+000	4	...........	1366.62
	142	14.3	-1.98756E-001	3.66764E-011	0.00000E+000	-1.98750E-001	0.00000E+000	4	...........	1366.62
	143	14.4	-1.88758E-001	3.87653E-011	0.00000E+000	-1.88753E-001	0.00000E+000	4	...........	1366.62
	144	14.5	-1.78754E-001	4.09316E-011	0.00000E+000	-1.78755E-001	0.00000E+000	4	...........	1366.62
	145	14.6	-1.68765E-001	4.29617E-011	0.00000E+000	-1.68758E-001	0.00000E+000	4	...........	1366.62
	146	14.7	-1.58761E-001	4.48128E-011	0.00000E+000	-1.58760E-001	0.00000E+000	4	...........	1366.62
	147	14.8	-1.48779E-001	4.63674E-011	0.00000E+000	-1.48763E-001	0.00000E+000	4	...........	1366.62
	148	14.9	-1.38777E-001	4.77637E-011	0.00000E+000	-1.38765E-001	0.00000E+000	4	...........	1366.62
	149	15	-1.28801E-001	4.91772E-011	0.00000E+000	-1.28768E-001	0.00000E+000	4	...........	1366.62
	150	15.1	-1.18777E-001	5.03958E-011	0.00000E+000	-1.18771E-001	0.00000E+000	4	...........	1366.62
	151	15.2	-1.08782E-001	5.14307E-011	0.00000E+000	-1.08773E-001	0.00000E+000	4	...........	1366.62
	152	15.3	-9.87825E-002	5.28650E-011	0.00000E+000	-9.87757E-002	0.00000E+000	4	...........	1366.62
	153	15.4	-8.87756E-002	5.40979E-011	0.00000E+000	-8.87783E-002	0.00000E+000	4	...........	1366.62
	154	15.5	-7.87918E-002	5.55100E-011	0.00000E+000	-7.87809E-002	0.00000E+000	4	...........	1366.62
	155	15.6	-6.87959E-002	5.65777E-011	0.00000E+000	-6.87834E-002	0.00000E+000	4	...........	1366.62
	156	15.7	-5.87987E-002	5.77386E-011	0.00000E+000	-5.87860E-002	0.00000E+000	4	...........	1366.62
	157	15.8	-4.87857E-002	5.93294E-011	0.00000E+000	-4.87885E-002	0.00000E+000	4	...........	1366.62
	158	15.9	-3.88073E-002	6.04669E-011	0.00000E+000	-3.87911E-002	0.00000E+000	4	...........	1366.62
	159	16	-2.88167E-002	6.16288E-011	0.00000E+000	-2.87937E-002	0.00000E+000	4	...........	1366.62
	160	16.1	-1.88163E-002	6.26136E-011	0.00000E+000	-1.87962E-002	0.00000E+000	4	...........	1366.62
	161	16.2	-8.75263E-003	6.39295E-011	0.00000E+000	-8.74878E-003	0.00000E+000	4	...........	1366.62
	162	16.3	1.27527E-003	6.48227E-011	0.00000E+000	1.24865E-003	0.00000E+000	4	...........	1366.62
	163	16.4	1.12485E-002	6.61764E-011	0.00000E+000	1.12461E-002	0.00000E+000	4	...........	1366.62
	164	16.5	2.12536E-002	6.72245E-011	0.00000E+000	2.12435E-002	0.00000E+000	4	...........	1366.62
	165	16.6	3.12652E-002	6.84904E-011	0.00000E+000	3.12410E-002	0.00000E+000	4	...........	1366.62
	166	16.7	4.12705E-002	6.97398E-011	0.00000E+000	4.12384E-002	0.00000E+000	4	...........	1366.62
	167	16.8	5.12643E-002	7.06679E-011	0.00000E+000	5.12359E-002	0.00000E+000	4	...........	1366.62
	168	16.9	6.12472E-002	7.18618E-011	0.00000E+000	6.12333E-002	0.00000E+000	4	...........	1366.62
	169	17	7.12412E-002	7.30500E-011	0.00000E+000	7.12307E-002	0.00000E+000	4	...........	1366.62
	170	17.1	8.12460E-002	7.42282E-011	0.00000E+000	8.12282E-002	0.00000E+000	4	...........	1366.62
	171	17.2	9.12467E-002	7.52366E-011	0.00000E+000	9.12256E-002	0.00000E+000	4	...........	1366.62
	172	17.3	1.01251E-001	7.62682E-011	0.00000E+000	1.01223E-001	0.00000E+000	4	...........	1366.62
	173	17.4	1.11244E-001	7.73645E-011	0.00000E+000	1.11221E-001	0.00000E+000	4	...........	1366.62
	174	17.5	1.21248E-001	7.86757E-011	0.00000E+000	1.21218E-001	0.00000E+000	4	...........	1366.62
	175	17.6	1.31248E-001	7.95421E-011	0.00000E+000	1.31215E-001	0.00000E+000	4	...........	1366.62
	176	17.7	1.41246E-001	8.07561E-011	0.00000E+000	1.41213E-001	0.00000E+000	4	...........	1366.62
	177	17.8	1.51213E-001	8.19837E-011	0.00000E+000	1.51210E-001	0.00000E+000	4	...........	1366.62
	178	17.9	1.61209E-001	8.31142E-011	0.00000E+000	1.61208E-001	0.00000E+000	4	...........	1366.62
	179	18	1.71211E-001	8.40194E-011	0.00000E+000	1.71205E-001	0.00000E+000	4	...........	1366.54
	180	18.1	1.81276E-001	8.52485E-011	0.00000E+000	1.81253E-001	0.00000E+000	4	...........	1366.54
	181	18.2	1.91256E-001	8.60912E-011	0.00000E+000	1.91250E-001	0.00000E+000	4	...........	1366.54
	182	18.3	2.01263E-001	8.74861E-011	0.00000E+000	2.01247E-001	0.00000E+000	4	...........	1366.54
	183	18.4	2.11258E-001	8.89288E-011	0.00000E+000	2.11245E-001	0.00000E+000	4	...........	1366.54
	184	18.5	2.21272E-001	9.05605E-011	0.00000E+000	2.21242E-001	0.00000E+000	4	...........	1366.54
	185	18.6	2.31282E-001	9.18897E-011	0.00000E+000	2.31240E-001	0.00000E+000	4	...........	1366.54
	186	18.7	2.41259E-001	9.27944E-011	0.00000E+000	2.41237E-001	0.00000E+000	4	...........	1366.54
	187	18.8	2.51257E-001	9.35572E-011	0.00000E+000	2.51235E-001	0.00000E+000	4	...........	1366.54
	188	18.9	2.61258E-001	9.38922E-011	0.00000E+000	2.61232E-001	0.00000E+000	4	...........	1366.54
	189	19	2.71254E-001	9.44565E-011	0.00000E+000	2.71230E-001	0.00000E+000	4	...........	1366.54
	190	19.1	2.81252E-001	9.47352E-011	0.00000E+000	2.81227E-001	0.00000E+000	4	...........	1366.54
	191	19.2	2.91250E-001	9.51242E-011	0.00000E+000	2.91224E-001	0.00000E+000	4	...........	1366.54
	192	19.3	3.01265E-001	9.51161E-011	0.00000E+000	3.01222E-001	0.00000E+000	4	...........	1366.54
	193	19.4	3.11267E-001	9.52477E-011	0.00000E+000	3.11219E-001	0.00000E+000	4	...........	1366.54
	194	19.5	3.21269E-001	9.53901E-011	0.00000E+000	3.21217E-001	0.00000E+000	4	...........	1366.54
	195	19.6	3.31241E-001	9.53715E-011	0.00000E+000	3.31214E-001	0.00000E+000	4	...........	1366.54
	196	19.7	3.41247E-001	9.52664E-011	0.00000E+000	3.41212E-001	0.00000E+000	4	...........	1366.54
	197	19.8	3.51240E-001	9.54087E-011	0.00000E+000	3.51209E-001	0.00000E+000	4	...........	1366.54
	198	19.9	3.61246E-001	9.51947E-011	0.00000E+000	3.61207E-001	0.00000E+000	4	...........	1366.54
	199	20	3.71253E-001	9.53106E-011	0.00000E+000	3.71204E-001	0.00000E+000	4	...........	1366.54
	200	20.1	3.81278E-001	9.55338E-011	0.00000E+000	3.81251E-001	0.00000E+000	4	...........	1366.54
	201	20.2	3.91280E-001	9.53321E-011	0.00000E+000	3.91249E-001	0.00000E+000	4	...........	1366.54
	202	20.3	4.01277E-001	9.51004E-011	0.00000E+000	4.01246E-001	0.00000E+000	4	...........	1366.54
	203	20.4	4.11292E-001	9.50331E-011	0.00000E+000	4.11244E-001	0.00000E+000	4	...........	1366.54
	204	20.5	4.21287E-001	9.45537E-011	0.00000E+000	4.21241E-001	0.00000E+000	4	...........	1366.54
	205	20.6	4.31283E-001	9.40325E-011	0.00000E+000	4.31239E-001	0.00000E+000	4	...........	1366.54
	206	20.7	4.41292E-001	9.35550E-011	0.00000E+000	4.41236E-001	0.00000E+000	4	...........	1366.54
	207	20.8	4.51276E-001	9.29872E-011	0.00000E+000	4.51233E-001	0.00000E+000	4	...........	1366.54
	208	20.9	4.61290E-001	9.25888E-011	0.00000E+000	4.61231E-001	0.00000E+000	4	...........	1366.54
	209	21	4.71271E-001	9.18198E-011	0.00000E+000	4.71228E-001	0.00000E+000	4	...........	1366.54
	210	21.1	4.81279E-001	9.10965E-011	0.00000E+000	4.81226E-001	0.00000E+000	4	...........	1366.54
	211	21.2	4.91287E-001	9.03519E-011	0.00000E+000	4.91223E-001	0.00000E+000	4	...........	1366.54
	212	21.3	5.01284E-001	8.96046E-011	0.00000E+000	5.01221E-001	0.00000E+000	4	...........	1366.54
	213	21.4	5.11267E-001	8.92153E-011	0.00000E+000	5.11218E-001	0.00000E+000	4	...........	1366.54
	214	21.5	5.21258E-001	8.92217E-011	0.00000E+000	5.21216E-001	0.00000E+000	4	...........	1366.54
	215	21.6	5.31276E-001	8.97053E-011	0.00000E+000	5.31213E-001	0.00000E+000	4	...........	1366.54
	216	21.7	5.41272E-001	9.03165E-011	0.00000E+000	5.41210E-001	0.00000E+000	4	...........	1366.54
	217	21.8	5.51277E-001	9.02682E-011	0.00000E+000	5.51208E-001	0.00000E+000	4	...........	1366.54
	218	21.9	5.61256E-001	8.99149E-011	0.00000E+000	5.61205E-001	0.00000E+000	4	...........	1366.54
	219	22	5.71317E-001	8.99399E-011	0.00000E+000	5.71253E-001	0.00000E+000	4	...........	1366.54
	220	22.1	5.81312E-001	8.92946E-011	0.00000E+000	5.81250E-001	0.00000E+000	4	...........	1366.54
	221	22.2	5.91315E-001	8.89186E-011	0.00000E+000	5.91248E-001	0.00000E+000	4	...........	1366.54
	222	22.3	6.01316E-001	8.88895E-011	0.00000E+000	6.01245E-001	0.00000E+000	4	...........	1366.54
	223	22.4	6.11306E-001	8.98542E-011	0.00000E+000	6.11242E-001	0.00000E+000	4	...........	1366.54
	224	22.5	6.21312E-001	8.89561E-011	0.00000E+000	6.21240E-001	0.00000E+000	4	...........	1366.54
	225	22.6	6.31311E-001	8.82853E-011	0.00000E+000	6.31237E-001	0.00000E+000	4	...........	1366.54
	226	22.7	6.41316E-001	8.80349E-011	0.00000E+000	6.41235E-001	0.00000E+000	4	...........	1366.54
	227	22.8	6.51311E-001	8.75282E-011	0.00000E+000	6.51232E-001	0.00000E+000	4	...........	1366.54
	228	22.9	6.61295E-001	8.80662E-011	0.00000E+000	6.61230E-001	0.00000E+000	4	...........	1366.54
	229	23	6.71284E-001	8.83474E-011	0.00000E+000	6.71227E-001	0.00000E+000	4	...........	1366.54
	230	23.1	6.81309E-001	8.81004E-011	0.00000E+000	6.81225E-001	0.00000E+000	4	...........	1366.54
	231	23.2	6.91307E-001	8.89848E-011	0.00000E+000	6.91222E-001	0.00000E+000	4	...........	1366.54
	232	23.3	7.01290E-001	8.92795E-011	0.00000E+000	7.01219E-001	0.00000E+000	4	...........	1366.54
	233	23.4	7.11297E-001	8.94928E-011	0.00000E+000	7.11217E-001	0.00000E+000	4	...........	1366.54
	234	23.5	7.21286E-001	9.13380E-011	0.00000E+000	7.21214E-001	0.00000E+000	4	...........	1366.54
	235	23.6	7.31290E-001	9.18189E-011	0.00000E+000	7.31212E-001	0.00000E+000	4	...........	1366.54
	236	23.7	7.41257E-001	9.34309E-011	0.00000E+000	7.41209E-001	0.00000E+000	4	...........	1366.54
	237	23.8	7.51272E-001	9.62059E-011	0.00000E+000	7.51207E-001	0.00000E+000	4	...........	1366.54
	238	23.9	7.61277E-001	9.92050E-011	0.00000E+000	7.61204E-001	0.00000E+000	4	...........	1366.54
	239	24	7.71338E-001	1.02864E-010	0.00000E+000	7.71252E-001	0.00000E+000	4	...........	1366.54
	240	24.1	7.81330E-001	1.08723E-010	0.00000E+000	7.81249E-001	0.00000E+000	4	...........	1366.54
	241	24.2	7.91319E-001	1.16630E-010	0.00000E+000	7.91246E-001	0.00000E+000	4	...........	1366.54
	242	24.3	8.01330E-001	1.28077E-010	0.00000E+000	8.01244E-001	0.00000E+000	4	...........	1366.54
CURVE2	TABLE
	Pt	T	Vf	Im	Vu	Sig	Ach	IERange	Over	Temp
	#	s	V vs. Ref.	A	V	V	V	#	bits	deg C
	243	24.4	7.90128E-001	9.33589E-011	0.00000E+000	7.89997E-001	0.00000E+000	4	...........	1366.54
	244	24.5	7.80106E-001	7.63685E-011	0.00000E+000	7.79999E-001	0.00000E+000	4	...........	1366.54
	245	24.6	7.70120E-001	6.54101E-011	0.00000E+000	7.70002E-001	0.00000E+000	4	...........	1366.54
	246	24.7	7.60121E-001	5.72959E-011	0.00000E+000	7.60004E-001	0.00000E+000	4	...........	1366.54
	247	24.8	7.50132E-001	5.11974E-011	0.00000E+000	7.50007E-001	0.00000E+000	4	...........	1366.54
	248	24.9	7.40125E-001	4.56281E-011	0.00000E+000	7.40010E-001	0.00000E+000	4	...........	1366.54
	249	25	7.30148E-001	4.07114E-011	0.00000E+000	7.30012E-001	0.00000E+000	4	...........	1366.54
	250	25.1	7.20132E-001	3.67042E-011	0.00000E+000	7.20015E-001	0.00000E+000	4	...........	1366.54
	251	25.2	7.10146E-001	3.23358E-011	0.00000E+000	7.10017E-001	0.00000E+000	4	...........	1366.54
	252	25.3	7.00121E-001	2.83146E-011	0.00000E+000	7.00020E-001	0.00000E+000	4	...........	1366.54
	253	25.4	6.90119E-001	2.50917E-011	0.00000E+000	6.90022E-001	0.00000E+000	4	...........	1366.54
	254	25.5	6.80152E-001	2.18139E-011	0.00000E+000	6.80025E-001	0.00000E+000	4	...........	1366.54
	255	25.6	6.70092E-001	1.84609E-011	0.00000E+000	6.69977E-001	0.00000E+000	4	...........	1366.54
	256	25.7	6.60092E-001	1.53448E-011	0.00000E+000	6.59980E-001	0.00000E+000	4	...........	1366.54
	257	25.8	6.50093E-001	1.21387E-011	0.00000E+000	6.49983E-001	0.00000E+000	4	...........	1366.54
	258	25.9	6.40099E-001	9.20440E-012	0.00000E+000	6.39985E-001	0.00000E+000	4	...........	1366.54
	259	26	6.30106E-001	7.38644E-012	0.00000E+000	6.29988E-001	0.00000E+000	4	...........	1366.54
	260	26.1	6.20092E-001	5.10807E-012	0.00000E+000	6.19990E-001	0.00000E+000	4	...........	1366.54
	261	26.2	6.10101E-001	3.06735E-012	0.00000E+000	6.09993E-001	0.00000E+000	4	...........	1366.54
	262	26.3	6.00089E-001	1.20123E-012	0.00000E+000	5.99995E-001	0.00000E+000	4	...........	1366.54
	263	26.4	5.90121E-001	-6.06810E-013	0.00000E+000	5.89998E-001	0.00000E+000	4	...........	1366.54
	264	26.5	5.80113E-001	-2.82142E-012	0.00000E+000	5.80001E-001	0.00000E+000	4	...........	1366.54
	265	26.6	5.70098E-001	-5.45601E-012	0.00000E+000	5.70003E-001	0.00000E+000	4	...........	1366.54
	266	26.7	5.60093E-001	-7.67887E-012	0.00000E+000	5.60006E-001	0.00000E+000	4	...........	1366.54
	267	26.8	5.50109E-001	-9.86165E-012	0.00000E+000	5.50008E-001	0.00000E+000	4	...........	1366.54
	268	26.9	5.40108E-001	-1.24039E-011	0.00000E+000	5.40011E-001	0.00000E+000	4	...........	1366.54
	269	27	5.30119E-001	-1.48427E-011	0.00000E+000	5.30013E-001	0.00000E+000	4	...........	1366.54
	270	27.1	5.20120E-001	-1.71498E-011	0.00000E+000	5.20016E-001	0.00000E+000	4	...........	1366.54
	271	27.2	5.10108E-001	-1.91925E-011	0.00000E+000	5.10018E-001	0.00000E+000	4	...........	1366.54
	272	27.3	5.00141E-001	-2.08090E-011	0.00000E+000	5.00021E-001	0.00000E+000	4	...........	1366.54
	273	27.4	4.90149E-001	-2.21576E-011	0.00000E+000	4.90024E-001	0.00000E+000	4	...........	1366.54
	274	27.5	4.80092E-001	-2.50837E-011	0.00000E+000	4.79976E-001	0.00000E+000	4	...........	1366.54
	275	27.6	4.70087E-001	-2.83245E-011	0.00000E+000	4.69979E-001	0.00000E+000	4	...........	1366.54
	276	27.7	4.60074E-001	-3.10055E-011	0.00000E+000	4.59981E-001	0.00000E+000	4	...........	1366.54
	277	27.8	4.50083E-001	-3.35837E-011	0.00000E+000	4.49984E-001	0.00000E+000	4	...........	1366.54
	278	27.9	4.40080E-001	-3.58949E-011	0.00000E+000	4.39986E-001	0.00000E+000	4	...........	1366.54
	279	28	4.30093E-001	-3.89949E-011	0.00000E+000	4.29989E-001	0.00000E+000	4	...........	1366.62
	280	28.1	4.20088E-001	-4.18888E-011	0.00000E+000	4.19991E-001	0.00000E+000	4	...........	1366.62
	281	28.2	4.10101E-001	-4.48422E-011	0.00000E+000	4.09994E-001	0.00000E+000	4	...........	1366.62
	282	28.3	4.00097E-001	-4.79501E-011	0.00000E+000	3.99997E-001	0.00000E+000	4	...........	1366.62
	283	28.4	3.90088E-001	-5.08551E-011	0.00000E+000	3.89999E-001	0.00000E+000	4	...........	1366.62
	284	28.5	3.80086E-001	-5.28368E-011	0.00000E+000	3.80002E-001	0.00000E+000	4	...........	1366.62
	285	28.6	3.70087E-001	-5.50880E-011	0.00000E+000	3.70004E-001	0.00000E+000	4	...........	1366.62
	286	28.7	3.60089E-001	-5.75225E-011	0.00000E+000	3.60007E-001	0.00000E+000	4	...........	1366.62
	287	28.8	3.50098E-001	-5.99661E-011	0.00000E+000	3.50009E-001	0.00000E+000	4	...........	1366.62
	288	28.9	3.40101E-001	-6.18110E-011	0.00000E+000	3.40012E-001	0.00000E+000	4	...........	1366.62
	289	29	3.30091E-001	-6.34364E-011	0.00000E+000	3.30014E-001	0.00000E+000	4	...........	1366.62
	290	29.1	3.20110E-001	-6.52631E-011	0.00000E+000	3.20017E-001	0.00000E+000	4	...........	1366.62
	291	29.2	3.10116E-001	-6.72594E-011	0.00000E+000	3.10020E-001	0.00000E+000	4	...........	1366.62
	292	29.3	3.00095E-001	-6.90657E-011	0.00000E+000	3.00022E-001	0.00000E+000	4	...........	1366.62
	293	29.4	2.90097E-001	-7.07319E-011	0.00000E+000	2.90025E-001	0.00000E+000	4	...........	1366.62
	294	29.5	2.80046E-001	-7.26025E-011	0.00000E+000	2.79977E-001	0.00000E+000	4	...........	1366.62
	295	29.6	2.70064E-001	-7.41394E-011	0.00000E+000	2.69980E-001	0.00000E+000	4	...........	1366.62
	296	29.7	2.60073E-001	-7.59832E-011	0.00000E+000	2.59982E-001	0.00000E+000	4	...........	1366.62
	297	29.8	2.50069E-001	-7.78667E-011	0.00000E+000	2.49985E-001	0.00000E+000	4	...........	1366.62
	298	29.9	2.40073E-001	-7.95873E-011	0.00000E+000	2.39988E-001	0.00000E+000	4	...........	1366.62
	299	30	2.30084E-001	-8.11642E-011	0.00000E+000	2.29990E-001	0.00000E+000	4	...........	1366.54
	300	30.1	2.20063E-001	-8.28082E-011	0.00000E+000	2.19993E-001	0.00000E+000	4	...........	1366.54
	301	30.2	2.10064E-001	-8.44555E-011	0.00000E+000	2.09995E-001	0.00000E+000	4	...........	1366.54
	302	30.3	2.00063E-001	-8.58229E-011	0.00000E+000	1.99998E-001	0.00000E+000	4	...........	1366.54
	303	30.4	1.90063E-001	-8.72380E-011	0.00000E+000	1.90000E-001	0.00000E+000	4	...........	1366.54
	304	30.5	1.80085E-001	-8.85756E-011	0.00000E+000	1.80003E-001	0.00000E+000	4	...........	1366.54
	305	30.6	1.70080E-001	-8.97668E-011	0.00000E+000	1.70005E-001	0.00000E+000	4	...........	1366.54
	306	30.7	1.60066E-001	-9.08900E-011	0.00000E+000	1.60008E-001	0.00000E+000	4	...........	1366.54
	307	30.8	1.50062E-001	-9.21475E-011	0.00000E+000	1.50011E-001	0.00000E+000	4	...........	1366.54
	308	30.9	1.40058E-001	-9.33189E-011	0.00000E+000	1.40013E-001	0.00000E+000	4	...........	1366.54
	309	31	1.30089E-001	-9.46409E-011	0.00000E+000	1.30016E-001	0.00000E+000	4	...........	1366.62
	310	31.1	1.20089E-001	-9.55776E-011	0.00000E+000	1.20018E-001	0.00000E+000	4	...........	1366.62
	311	31.2	1.10097E-001	-9.68257E-011	0.00000E+000	1.10021E-001	0.00000E+000	4	...........	1366.62
	312	31.3	1.00072E-001	-9.81351E-011	0.00000E+000	1.00023E-001	0.00000E+000	4	...........	1366.62
	313	31.4	9.00437E-002	-9.96091E-011	0.00000E+000	8.99759E-002	0.00000E+000	4	...........	1366.62
	314	31.5	8.00472E-002	-1.01026E-010	0.00000E+000	7.99785E-002	0.00000E+000	4	...........	1366.62
	315	31.6	7.00629E-002	-1.02496E-010	0.00000E+000	6.99811E-002	0.00000E+000	4	...........	1366.62
	316	31.7	6.00356E-002	-1.04200E-010	0.00000E+000	5.99836E-002	0.00000E+000	4	...........	1366.62
	317	31.8	5.00513E-002	-1.05656E-010	0.00000E+000	4.99862E-002	0.00000E+000	4	...........	1366.62
	318	31.9	4.00670E-002	-1.07350E-010	0.00000E+000	3.99887E-002	0.00000E+000	4	...........	1366.62
	319	32	3.00704E-002	-1.09085E-010	0.00000E+000	2.99913E-002	0.00000E+000	4	...........	1366.62
	320	32.1	2.00563E-002	-1.10814E-010	0.00000E+000	1.99939E-002	0.00000E+000	4	...........	1366.62
	321	32.2	1.00476E-002	-1.12433E-010	0.00000E+000	9.99641E-003	0.00000E+000	4	...........	1366.62
	322	32.3	6.36327E-005	-1.14258E-010	0.00000E+000	-1.02818E-006	0.00000E+000	4	...........	1366.62
	323	32.4	-9.95215E-003	-1.16062E-010	0.00000E+000	-9.99847E-003	0.00000E+000	4	...........	1366.62
	324	32.5	-1.99510E-002	-1.17916E-010	0.00000E+000	-1.99959E-002	0.00000E+000	4	...........	1366.62
	325	32.6	-2.99638E-002	-1.19848E-010	0.00000E+000	-2.99934E-002	0.00000E+000	4	...........	1366.62
	326	32.7	-3.99654E-002	-1.21577E-010	0.00000E+000	-3.99908E-002	0.00000E+000	4	...........	1366.62
	327	32.8	-4.99413E-002	-1.23416E-010	0.00000E+000	-4.99882E-002	0.00000E+000	4	...........	1366.62
	328	32.9	-5.99451E-002	-1.25283E-010	0.00000E+000	-5.99857E-002	0.00000E+000	4	...........	1366.62
	329	33	-6.99350E-002	-1.26903E-010	0.00000E+000	-6.99831E-002	0.00000E+000	4	...........	1366.62
	330	33.1	-7.99494E-002	-1.28596E-010	0.00000E+000	-7.99806E-002	0.00000E+000	4	...........	1366.62
	331	33.2	-8.99416E-002	-1.30401E-010	0.00000E+000	-8.99780E-002	0.00000E+000	4	...........	1366.62
	332	33.3	-9.99376E-002	-1.31991E-010	0.00000E+000	-9.99754E-002	0.00000E+000	4	...........	1366.62
	333	33.4	-1.09976E-001	-1.33876E-010	0.00000E+000	-1.10023E-001	0.00000E+000	4	...........	1366.62
	334	33.5	-1.19980E-001	-1.35660E-010	0.00000E+000	-1.20020E-001	0.00000E+000	4	...........	1366.62
	335	33.6	-1.29987E-001	-1.37522E-010	0.00000E+000	-1.30018E-001	0.00000E+000	4	...........	1366.62
	336	33.7	-1.39963E-001	-1.39747E-010	0.00000E+000	-1.40015E-001	0.00000E+000	4	...........	1366.62
	337	33.8	-1.49973E-001	-1.41608E-010	0.00000E+000	-1.50013E-001	0.00000E+000	4	...........	1366.62
	338	33.9	-1.59963E-001	-1.43491E-010	0.00000E+000	-1.60010E-001	0.00000E+000	4	...........	1366.62
	339	34	-1.69962E-001	-1.45788E-010	0.00000E+000	-1.70007E-001	0.00000E+000	4	...........	1366.62
	340	34.1	-1.79983E-001	-1.47828E-010	0.00000E+000	-1.80005E-001	0.00000E+000	4	...........	1366.62
[...]
	638	63.9	-3.59999E-001	-1.66002E-010	0.00000E+000	-3.60009E-001	0.00000E+000	4	...........	1366.62
	639	64	-3.69970E-001	-1.67282E-010	0.00000E+000	-3.70006E-001	0.00000E+000	4	...........	1366.62
	640	64.1	-3.79971E-001	-1.68380E-010	0.00000E+000	-3.80004E-001	0.00000E+000	4	...........	1366.62
	641	64.2	-3.89958E-001	-1.69189E-010	0.00000E+000	-3.90001E-001	0.00000E+000	4	...........	1366.62
	642	64.3	-3.99966E-001	-1.69881E-010	0.00000E+000	-3.99999E-001	0.00000E+000	4	...........	1366.62
	643	64.4	-4.09965E-001	-1.70550E-010	0.00000E+000	-4.09996E-001	0.00000E+000	4	...........	1366.62
	644	64.5	-4.19969E-001	-1.70879E-010	0.00000E+000	-4.19994E-001	0.00000E+000	4	...........	1366.62
	645	64.6	-4.29959E-001	-1.71622E-010	0.00000E+000	-4.29991E-001	0.00000E+000	4	...........	1366.62
	646	64.7	-4.39967E-001	-1.72183E-010	0.00000E+000	-4.39988E-001	0.00000E+000	4	...........	1366.62
	647	64.8	-4.49967E-001	-1.73534E-010	0.00000E+000	-4.49986E-001	0.00000E+000	4	...........	1366.62
	648	64.9	-4.59969E-001	-1.75748E-010	0.00000E+000	-4.59983E-001	0.00000E+000	4	...........	1366.62
	649	65	-4.69962E-001	-1.76313E-010	0.00000E+000	-4.69981E-001	0.00000E+000	4	...........	1366.62
	650	65.1	-4.79966E-001	-1.77028E-010	0.00000E+000	-4.79978E-001	0.00000E+000	4	...........	1366.62
	651	65.2	-4.89968E-001	-1.78059E-010	0.00000E+000	-4.89976E-001	0.00000E+000	4	...........	1366.62
	652	65.3	-5.00027E-001	-1.79529E-010	0.00000E+000	-5.00023E-001	0.00000E+000	4	...........	1366.62
	653	65.4	-5.09993E-001	-1.80115E-010	0.00000E+000	-5.10020E-001	0.00000E+000	4	...........	1366.62
	654	65.5	-5.19981E-001	-1.81311E-010	0.00000E+000	-5.20018E-001	0.00000E+000	4	...........	1366.62
	655	65.6	-5.29986E-001	-1.82460E-010	0.00000E+000	-5.30015E-001	0.00000E+000	4	...........	1366.62
	656	65.7	-5.39996E-001	-1.85287E-010	0.00000E+000	-5.40013E-001	0.00000E+000	4	...........	1366.62
	657	65.8	-5.49977E-001	-1.87486E-010	0.00000E+000	-5.50010E-001	0.00000E+000	4	...........	1366.62
	658	65.9	-5.59966E-001	-1.87855E-010	0.00000E+000	-5.60008E-001	0.00000E+000	4	...........	1366.62
	659	66	-5.69973E-001	-1.90113E-010	0.00000E+000	-5.70005E-001	0.00000E+000	4	...........	1366.62
	660	66.1	-5.79994E-001	-1.92236E-010	0.00000E+000	-5.80003E-001	0.00000E+000	4	...........	1366.62
	661	66.2	-5.89987E-001	-1.93183E-010	0.00000E+000	-5.90000E-001	0.00000E+000	4	...........	1366.62
	662	66.3	-5.99977E-001	-1.95379E-010	0.00000E+000	-5.99997E-001	0.00000E+000	4	...........	1366.62
	663	66.4	-5.90032E-001	-1.69256E-010	0.00000E+000	-5.90000E-001	0.00000E+000	4	...........	1366.62
	664	66.5	-5.80028E-001	-1.55391E-010	0.00000E+000	-5.80003E-001	0.00000E+000	4	...........	1366.62
	665	66.6	-5.70010E-001	-1.45374E-010	0.00000E+000	-5.70005E-001	0.00000E+000	4	...........	1366.62
	666	66.7	-5.60014E-001	-1.36704E-010	0.00000E+000	-5.60008E-001	0.00000E+000	4	...........	1366.62
	667	66.8	-5.50022E-001	-1.28639E-010	0.00000E+000	-5.50010E-001	0.00000E+000	4	...........	1366.62
	668	66.9	-5.40027E-001	-1.22004E-010	0.00000E+000	-5.40013E-001	0.00000E+000	4	...........	1366.62
	669	67	-5.30014E-001	-1.15045E-010	0.00000E+000	-5.30015E-001	0.00000E+000	4	...........	1366.62
	670	67.1	-5.20021E-001	-1.08001E-010	0.00000E+000	-5.20018E-001	0.00000E+000	4	...........	1366.62
	671	67.2	-5.10041E-001	-1.01958E-010	0.00000E+000	-5.10020E-001	0.00000E+000	4	...........	1366.62
	672	67.3	-5.00058E-001	-9.53959E-011	0.00000E+000	-5.00023E-001	0.00000E+000	4	...........	1366.62
	673	67.4	-4.89995E-001	-8.95081E-011	0.00000E+000	-4.89976E-001	0.00000E+000	4	...........	1366.62
	674	67.5	-4.80005E-001	-8.29513E-011	0.00000E+000	-4.79978E-001	0.00000E+000	4	...........	1366.62
	675	67.6	-4.70015E-001	-7.66497E-011	0.00000E+000	-4.69981E-001	0.00000E+000	4	...........	1366.62
	676	67.7	-4.60016E-001	-7.11471E-011	0.00000E+000	-4.59983E-001	0.00000E+000	4	...........	1366.62
	677	67.8	-4.50027E-001	-6.56945E-011	0.00000E+000	-4.49986E-001	0.00000E+000	4	...........	1366.62
	678	67.9	-4.40017E-001	-6.05130E-011	0.00000E+000	-4.39988E-001	0.00000E+000	4	...........	1366.62
	679	68	-4.30002E-001	-5.53833E-011	0.00000E+000	-4.29991E-001	0.00000E+000	4	...........	1366.62
	680	68.1	-4.20006E-001	-5.07016E-011	0.00000E+000	-4.19994E-001	0.00000E+000	4	...........	1366.62
	681	68.2	-4.10011E-001	-4.53801E-011	0.00000E+000	-4.09996E-001	0.00000E+000	4	...........	1366.62
	682	68.3	-4.00017E-001	-4.04317E-011	0.00000E+000	-3.99999E-001	0.00000E+000	4	...........	1366.62
	683	68.4	-3.90018E-001	-3.45128E-011	0.00000E+000	-3.90001E-001	0.00000E+000	4	...........	1366.62
	684	68.5	-3.80015E-001	-2.86767E-011	0.00000E+000	-3.80004E-001	0.00000E+000	4	...........	1366.62
	685	68.6	-3.70013E-001	-2.28965E-011	0.00000E+000	-3.70006E-001	0.00000E+000	4	...........	1366.62
	686	68.7	-3.60038E-001	-1.73237E-011	0.00000E+000	-3.60009E-001	0.00000E+000	4	...........	1366.62
	687	68.8	-3.50040E-001	-1.21622E-011	0.00000E+000	-3.50011E-001	0.00000E+000	4	...........	1366.62
	688	68.9	-3.40037E-001	-7.14752E-012	0.00000E+000	-3.40014E-001	0.00000E+000	4	...........	1366.62
	689	69	-3.30005E-001	-2.78920E-012	0.00000E+000	-3.30017E-001	0.00000E+000	4	...........	1366.62
	690	69.1	-3.20007E-001	1.09897E-012	0.00000E+000	-3.20019E-001	0.00000E+000	4	...........	1366.62
	691	69.2	-3.10028E-001	5.12730E-012	0.00000E+000	-3.10022E-001	0.00000E+000	4	...........	1366.62
	692	69.3	-3.00040E-001	8.67640E-012	0.00000E+000	-3.00024E-001	0.00000E+000	4	...........	1366.62
	693	69.4	-2.89994E-001	1.13028E-011	0.00000E+000	-2.89977E-001	0.00000E+000	4	...........	1366.62
	694	69.5	-2.79993E-001	1.33718E-011	0.00000E+000	-2.79979E-001	0.00000E+000	4	...........	1366.62
	695	69.6	-2.69999E-001	1.54011E-011	0.00000E+000	-2.69982E-001	0.00000E+000	4	...........	1366.62
	696	69.7	-2.59996E-001	1.75056E-011	0.00000E+000	-2.59984E-001	0.00000E+000	4	...........	1366.62
	697	69.8	-2.49991E-001	1.98971E-011	0.00000E+000	-2.49987E-001	0.00000E+000	4	...........	1366.62
	698	69.9	-2.39993E-001	2.25435E-011	0.00000E+000	-2.39990E-001	0.00000E+000	4	...........	1366.62
	699	70	-2.29997E-001	2.51806E-011	0.00000E+000	-2.29992E-001	0.00000E+000	4	...........	1366.62
	700	70.1	-2.20015E-001	2.77659E-011	0.00000E+000	-2.19995E-001	0.00000E+000	4	...........	1366.62
	701	70.2	-2.10001E-001	3.02067E-011	0.00000E+000	-2.09997E-001	0.00000E+000	4	...........	1366.62
	702	70.3	-2.00010E-001	3.25979E-011	0.00000E+000	-2.00000E-001	0.00000E+000	4	...........	1366.62
	703	70.4	-1.90007E-001	3.50193E-011	0.00000E+000	-1.90002E-001	0.00000E+000	4	...........	1366.62
	704	70.5	-1.80033E-001	3.75375E-011	0.00000E+000	-1.80005E-001	0.00000E+000	4	...........	1366.62
	705	70.6	-1.70020E-001	3.98705E-011	0.00000E+000	-1.70007E-001	0.00000E+000	4	...........	1366.62
	706	70.7	-1.60012E-001	4.21573E-011	0.00000E+000	-1.60010E-001	0.00000E+000	4	...........	1366.62
	707	70.8	-1.50025E-001	4.42007E-011	0.00000E+000	-1.50013E-001	0.00000E+000	4	...........	1366.62
	708	70.9	-1.40020E-001	4.61073E-011	0.00000E+000	-1.40015E-001	0.00000E+000	4	...........	1366.62
	709	71	-1.30037E-001	4.74850E-011	0.00000E+000	-1.30018E-001	0.00000E+000	4	...........	1366.62
	710	71.1	-1.20032E-001	4.88530E-011	0.00000E+000	-1.20020E-001	0.00000E+000	4	...........	1366.62
	711	71.2	-1.10035E-001	4.99115E-011	0.00000E+000	-1.10023E-001	0.00000E+000	4	...........	1366.62
	712	71.3	-9.99886E-002	5.09581E-011	0.00000E+000	-9.99754E-002	0.00000E+000	4	...........	1366.62
	713	71.4	-8.99871E-002	5.21149E-011	0.00000E+000	-8.99780E-002	0.00000E+000	4	...........	1366.62
	714	71.5	-8.00026E-002	5.33369E-011	0.00000E+000	-7.99806E-002	0.00000E+000	4	...........	1366.62
	715	71.6	-6.99918E-002	5.46402E-011	0.00000E+000	-6.99831E-002	0.00000E+000	4	...........	1366.62
	716	71.7	-5.99966E-002	5.56646E-011	0.00000E+000	-5.99857E-002	0.00000E+000	4	...........	1366.62
	717	71.8	-4.99785E-002	5.65893E-011	0.00000E+000	-4.99882E-002	0.00000E+000	4	...........	1366.62
	718	71.9	-4.00058E-002	5.77553E-011	0.00000E+000	-3.99908E-002	0.00000E+000	4	...........	1366.62
	719	72	-3.00224E-002	5.86385E-011	0.00000E+000	-2.99934E-002	0.00000E+000	4	...........	1366.62
	720	72.1	-2.00182E-002	5.95477E-011	0.00000E+000	-1.99959E-002	0.00000E+000	4	...........	1366.62
	721	72.2	-1.00058E-002	6.05374E-011	0.00000E+000	-9.99847E-003	0.00000E+000	4	...........	1366.62
	722	72.3	7.61542E-006	6.14234E-011	0.00000E+000	-1.02818E-006	0.00000E+000	4	...........	1366.62
	723	72.4	9.99920E-003	6.23559E-011	0.00000E+000	9.99641E-003	0.00000E+000	4	...........	1366.62
	724	72.5	2.00074E-002	6.33405E-011	0.00000E+000	1.99939E-002	0.00000E+000	4	...........	1366.62
	725	72.6	3.00199E-002	6.39661E-011	0.00000E+000	2.99913E-002	0.00000E+000	4	...........	1366.62
	726	72.7	4.00130E-002	6.49448E-011	0.00000E+000	3.99887E-002	0.00000E+000	4	...........	1366.62
	727	72.8	5.00021E-002	6.56152E-011	0.00000E+000	4.99862E-002	0.00000E+000	4	...........	1366.62
	728	72.9	5.99882E-002	6.61680E-011	0.00000E+000	5.99836E-002	0.00000E+000	4	...........	1366.62
	729	73	7.00036E-002	6.69258E-011	0.00000E+000	6.99811E-002	0.00000E+000	4	...........	1366.62
	730	73.1	7.99909E-002	6.77100E-011	0.00000E+000	7.99785E-002	0.00000E+000	4	...........	1366.62
	731	73.2	8.99899E-002	6.83814E-011	0.00000E+000	8.99759E-002	0.00000E+000	4	...........	1366.62
	732	73.3	1.00029E-001	6.94677E-011	0.00000E+000	1.00023E-001	0.00000E+000	4	...........	1366.62
	733	73.4	1.10053E-001	6.98275E-011	0.00000E+000	1.10021E-001	0.00000E+000	4	...........	1366.62
	734	73.5	1.20059E-001	7.07187E-011	0.00000E+000	1.20018E-001	0.00000E+000	4	...........	1366.62
	735	73.6	1.30059E-001	7.16327E-011	0.00000E+000	1.30016E-001	0.00000E+000	4	...........	1366.62
	736	73.7	1.40025E-001	7.23496E-011	0.00000E+000	1.40013E-001	0.00000E+000	4	...........	1366.62
	737	73.8	1.50024E-001	7.28560E-011	0.00000E+000	1.50011E-001	0.00000E+000	4	...........	1366.62
	738	73.9	1.60020E-001	7.36461E-011	0.00000E+000	1.60008E-001	0.00000E+000	4	...........	1366.62
	739	74	1.70033E-001	7.41192E-011	0.00000E+000	1.70005E-001	0.00000E+000	4	...........	1366.71
	740	74.1	1.80042E-001	7.48695E-011	0.00000E+000	1.80003E-001	0.00000E+000	4	...........	1366.71
	741	74.2	1.90036E-001	7.57005E-011	0.00000E+000	1.90000E-001	0.00000E+000	4	...........	1366.71
	742	74.3	2.00018E-001	7.65665E-011	0.00000E+000	1.99998E-001	0.00000E+000	4	...........	1366.71
	743	74.4	2.10026E-001	7.77596E-011	0.00000E+000	2.09995E-001	0.00000E+000	4	...........	1366.71
	744	74.5	2.20017E-001	7.88412E-011	0.00000E+000	2.19993E-001	0.00000E+000	4	...........	1366.71
	745	74.6	2.30037E-001	7.94918E-011	0.00000E+000	2.29990E-001	0.00000E+000	4	...........	1366.71
	746	74.7	2.40021E-001	8.02530E-011	0.00000E+000	2.39988E-001	0.00000E+000	4	...........	1366.71
	747	74.8	2.50000E-001	8.06198E-011	0.00000E+000	2.49985E-001	0.00000E+000	4	...........	1366.71
	748	74.9	2.60004E-001	8.07500E-011	0.00000E+000	2.59982E-001	0.00000E+000	4	...........	1366.71
	749	75	2.70003E-001	8.08118E-011	0.00000E+000	2.69980E-001	0.00000E+000	4	...........	1366.71
	750	75.1	2.80001E-001	8.01511E-011	0.00000E+000	2.79977E-001	0.00000E+000	4	...........	1366.71
	751	75.2	2.90055E-001	8.02546E-011	0.00000E+000	2.90025E-001	0.00000E+000	4	...........	1366.71
	752	75.3	3.00057E-001	8.04188E-011	0.00000E+000	3.00022E-001	0.00000E+000	4	...........	1366.71
	753	75.4	3.10072E-001	7.99895E-011	0.00000E+000	3.10020E-001	0.00000E+000	4	...........	1366.71
	754	75.5	3.20056E-001	7.94924E-011	0.00000E+000	3.20017E-001	0.00000E+000	4	...........	1366.71
	755	75.6	3.30042E-001	7.93066E-011	0.00000E+000	3.30014E-001	0.00000E+000	4	...........	1366.71
	756	75.7	3.40048E-001	7.94661E-011	0.00000E+000	3.40012E-001	0.00000E+000	4	...........	1366.71
	757	75.8	3.50054E-001	7.89488E-011	0.00000E+000	3.50009E-001	0.00000E+000	4	...........	1366.71
	758	75.9	3.60048E-001	7.83656E-011	0.00000E+000	3.60007E-001	0.00000E+000	4	...........	1366.71
	759	76	3.70045E-001	7.73134E-011	0.00000E+000	3.70004E-001	0.00000E+000	4	...........	1366.71
	760	76.1	3.80044E-001	7.70905E-011	0.00000E+000	3.80002E-001	0.00000E+000	4	...........	1366.71
	761	76.2	3.90033E-001	7.63212E-011	0.00000E+000	3.89999E-001	0.00000E+000	4	...........	1366.71
	762	76.3	4.00034E-001	7.66636E-011	0.00000E+000	3.99997E-001	0.00000E+000	4	...........	1366.71
	763	76.4	4.10036E-001	7.59643E-011	0.00000E+000	4.09994E-001	0.00000E+000	4	...........	1366.71
	764	76.5	4.20043E-001	7.49722E-011	0.00000E+000	4.19991E-001	0.00000E+000	4	...........	1366.71
	765	76.6	4.30046E-001	7.42114E-011	0.00000E+000	4.29989E-001	0.00000E+000	4	...........	1366.71
	766	76.7	4.40024E-001	7.43975E-011	0.00000E+000	4.39986E-001	0.00000E+000	4	...........	1366.71
	767	76.8	4.50038E-001	7.37706E-011	0.00000E+000	4.49984E-001	0.00000E+000	4	...........	1366.71
	768	76.9	4.60024E-001	7.31525E-011	0.00000E+000	4.59981E-001	0.00000E+000	4	...........	1366.71
	769	77	4.70023E-001	7.14257E-011	0.00000E+000	4.69979E-001	0.00000E+000	4	...........	1366.71
	770	77.1	4.80033E-001	7.14291E-011	0.00000E+000	4.79976E-001	0.00000E+000	4	...........	1366.71
	771	77.2	4.90100E-001	7.12446E-011	0.00000E+000	4.90024E-001	0.00000E+000	4	...........	1366.71
	772	77.3	5.00093E-001	7.06185E-011	0.00000E+000	5.00021E-001	0.00000E+000	4	...........	1366.71
	773	77.4	5.10070E-001	7.02365E-011	0.00000E+000	5.10018E-001	0.00000E+000	4	...........	1366.71
	774	77.5	5.20079E-001	7.03245E-011	0.00000E+000	5.20016E-001	0.00000E+000	4	...........	1366.71
	775	77.6	5.30081E-001	6.98649E-011	0.00000E+000	5.30013E-001	0.00000E+000	4	...........	1366.71
	776	77.7	5.40071E-001	6.94792E-011	0.00000E+000	5.40011E-001	0.00000E+000	4	...........	1366.71
	777	77.8	5.50079E-001	6.86073E-011	0.00000E+000	5.50008E-001	0.00000E+000	4	...........	1366.71
	778	77.9	5.60071E-001	6.78759E-011	0.00000E+000	5.60006E-001	0.00000E+000	4	...........	1366.71
	779	78	5.70078E-001	6.79416E-011	0.00000E+000	5.70003E-001	0.00000E+000	4	...........	1366.71
	780	78.1	5.80071E-001	6.76298E-011	0.00000E+000	5.80001E-001	0.00000E+000	4	...........	1366.71
	781	78.2	5.90079E-001	6.69793E-011	0.00000E+000	5.89998E-001	0.00000E+000	4	...........	1366.71
	782	78.3	6.00054E-001	6.64104E-011	0.00000E+000	5.99995E-001	0.00000E+000	4	...........	1366.71
	783	78.4	6.10063E-001	6.60949E-011	0.00000E+000	6.09993E-001	0.00000E+000	4	...........	1366.71
	784	78.5	6.20061E-001	6.54142E-011	0.00000E+000	6.19990E-001	0.00000E+000	4	...........	1366.71
	785	78.6	6.30063E-001	6.55710E-011	0.00000E+000	6.29988E-001	0.00000E+000	4	...........	1366.71
	786	78.7	6.40064E-001	6.50267E-011	0.00000E+000	6.39985E-001	0.00000E+000	4	...........	1366.71
	787	78.8	6.50064E-001	6.43233E-011	0.00000E+000	6.49983E-001	0.00000E+000	4	...........	1366.71
	788	78.9	6.60054E-001	6.42352E-011	0.00000E+000	6.59980E-001	0.00000E+000	4	...........	1366.71
	789	79	6.70051E-001	6.38476E-011	0.00000E+000	6.69977E-001	0.00000E+000	4	...........	1366.71
	790	79.1	6.80106E-001	6.39177E-011	0.00000E+000	6.80025E-001	0.00000E+000	4	...........	1366.71
	791	79.2	6.90083E-001	6.31871E-011	0.00000E+000	6.90022E-001	0.00000E+000	4	...........	1366.71
	792	79.3	7.00087E-001	6.27399E-011	0.00000E+000	7.00020E-001	0.00000E+000	4	...........	1366.71
	793	79.4	7.10108E-001	6.32597E-011	0.00000E+000	7.10017E-001	0.00000E+000	4	...........	1366.71
	794	79.5	7.20075E-001	6.35108E-011	0.00000E+000	7.20015E-001	0.00000E+000	4	...........	1366.71
	795	79.6	7.30097E-001	6.50965E-011	0.00000E+000	7.30012E-001	0.00000E+000	4	...........	1366.71
	796	79.7	7.40081E-001	6.63358E-011	0.00000E+000	7.40010E-001	0.00000E+000	4	...........	1366.71
	797	79.8	7.50089E-001	6.89501E-011	0.00000E+000	7.50007E-001	0.00000E+000	4	...........	1366.71
	798	79.9	7.60088E-001	7.21419E-011	0.00000E+000	7.60004E-001	0.00000E+000	4	...........	1366.72
	799	80	7.70093E-001	7.61554E-011	0.00000E+000	7.70002E-001	0.00000E+000	4	...........	1366.97
	800	80.1	7.80057E-001	8.14311E-011	0.00000E+000	7.79999E-001	0.00000E+000	4	...........	1366.97
	801	80.2	7.90075E-001	8.92972E-011	0.00000E+000	7.89997E-001	0.00000E+000	4	...........	1366.97
	802	80.3	8.00085E-001	9.97922E-011	0.00000E+000	7.99994E-001	0.00000E+000	4	...........	1366.97
CURVE4	TABLE
	Pt	T	Vf	Im	Vu	Sig	Ach	IERange	Over	Temp
	#	s	V vs. Ref.	A	V	V	V	#	bits	deg C
	803	80.4	7.90125E-001	6.91828E-011	0.00000E+000	7.89997E-001	0.00000E+000	4	...........	1366.97
	804	80.5	7.80107E-001	5.29573E-011	0.00000E+000	7.79999E-001	0.00000E+000	4	...........	1366.97
	805	80.6	7.70139E-001	4.24589E-011	0.00000E+000	7.70002E-001	0.00000E+000	4	...........	1366.97
	806	80.7	7.60130E-001	3.52329E-011	0.00000E+000	7.60004E-001	0.00000E+000	4	...........	1366.97
	807	80.8	7.50127E-001	2.91155E-011	0.00000E+000	7.50007E-001	0.00000E+000	4	...........	1366.97
	808	80.9	7.40109E-001	2.44026E-011	0.00000E+000	7.40010E-001	0.00000E+000	4	...........	1366.96
	809	81	7.30121E-001	2.11453E-011	0.00000E+000	7.30012E-001	0.00000E+000	4	...........	1366.88
	810	81.1	7.20122E-001	1.81356E-011	0.00000E+000	7.20015E-001	0.00000E+000	4	...........	1366.88
	811	81.2	7.10156E-001	1.55265E-011	0.00000E+000	7.10017E-001	0.00000E+000	4	...........	1366.88
	812	81.3	7.00139E-001	1.30550E-011	0.00000E+000	7.00020E-001	0.00000E+000	4	...........	1366.88
	813	81.4	6.90135E-001	1.07117E-011	0.00000E+000	6.90022E-001	0.00000E+000	4	...........	1366.88
	814	81.5	6.80166E-001	8.79327E-012	0.00000E+000	6.80025E-001	0.00000E+000	4	...........	1366.88
	815	81.6	6.70098E-001	6.03038E-012	0.00000E+000	6.69977E-001	0.00000E+000	4	...........	1366.88
	816	81.7	6.60100E-001	4.06807E-012	0.00000E+000	6.59980E-001	0.00000E+000	4	...........	1366.88
	817	81.8	6.50097E-001	2.61258E-012	0.00000E+000	6.49983E-001	0.00000E+000	4	...........	1366.88
	818	81.9	6.40085E-001	9.07529E-013	0.00000E+000	6.39985E-001	0.00000E+000	4	...........	1366.88
	819	82	6.30097E-001	-8.55150E-013	0.00000E+000	6.29988E-001	0.00000E+000	4	...........	1366.97
	820	82.1	6.20102E-001	-2.14049E-012	0.00000E+000	6.19990E-001	0.00000E+000	4	...........	1366.97
	821	82.2	6.10105E-001	-3.60238E-012	0.00000E+000	6.09993E-001	0.00000E+000	4	...........	1366.97
	822	82.3	6.00098E-001	-5.00721E-012	0.00000E+000	5.99995E-001	0.00000E+000	4	...........	1366.97
	823	82.4	5.90129E-001	-6.19719E-012	0.00000E+000	5.89998E-001	0.00000E+000	4	...........	1366.97
	824	82.5	5.80108E-001	-7.63144E-012	0.00000E+000	5.80001E-001	0.00000E+000	4	...........	1366.97
	825	82.6	5.70108E-001	-8.70126E-012	0.00000E+000	5.70003E-001	0.00000E+000	4	...........	1366.97
	826	82.7	5.60111E-001	-9.64056E-012	0.00000E+000	5.60006E-001	0.00000E+000	4	...........	1366.97
	827	82.8	5.50119E-001	-1.07418E-011	0.00000E+000	5.50008E-001	0.00000E+000	4	...........	1366.97
	828	82.9	5.40105E-001	-1.22572E-011	0.00000E+000	5.40011E-001	0.00000E+000	4	...........	1366.96
	829	83	5.30109E-001	-1.34872E-011	0.00000E+000	5.30013E-001	0.00000E+000	4	...........	1366.88
	830	83.1	5.20109E-001	-1.47892E-011	0.00000E+000	5.20016E-001	0.00000E+000	4	...........	1366.88
	831	83.2	5.10113E-001	-1.60636E-011	0.00000E+000	5.10018E-001	0.00000E+000	4	...........	1366.88
	832	83.3	5.00147E-001	-1.73864E-011	0.00000E+000	5.00021E-001	0.00000E+000	4	...........	1366.88
	833	83.4	4.90149E-001	-1.91246E-011	0.00000E+000	4.90024E-001	0.00000E+000	4	...........	1366.88
	834	83.5	4.80087E-001	-2.07803E-011	0.00000E+000	4.79976E-001	0.00000E+000	4	...........	1366.88
	835	83.6	4.70077E-001	-2.22416E-011	0.00000E+000	4.69979E-001	0.00000E+000	4	...........	1366.88
	836	83.7	4.60084E-001	-2.38448E-011	0.00000E+000	4.59981E-001	0.00000E+000	4	...........	1366.88
	837	83.8	4.50084E-001	-2.57154E-011	0.00000E+000	4.49984E-001	0.00000E+000	4	...........	1366.88
	838	83.9	4.40076E-001	-2.76679E-011	0.00000E+000	4.39986E-001	0.00000E+000	4	...........	1366.88
	839	84	4.30081E-001	-2.95519E-011	0.00000E+000	4.29989E-001	0.00000E+000	4	...........	1366.79
	840	84.1	4.20092E-001	-3.16865E-011	0.00000E+000	4.19991E-001	0.00000E+000	4	...........	1366.79