File: Test_Data_Files/20250509_T_IF0011_IIA42_E05_PBSair_PEDOT_CV50000.DTA
EXPLAIN
TAG	CV
TITLE	LABEL	CV50000	Test Identifier
DATE	LABEL	5/9/2025	Date
TIME	LABEL	15:09:18	Time
NOTES	NOTES	1	Notes...

PSTAT	PSTAT	REF600P-43058	Potentiostat
VINIT	POTEN	0.00000E+000	T	Initial E (V)
VLIMIT1	POTEN	-9.00000E-001	F	Scan Limit 1 (V)
VLIMIT2	POTEN	6.00000E-001	F	Scan Limit 2 (V)
VFINAL	POTEN	0.00000E+000	T	Final E (V)
SCANRATE	QUANT	4.99999E+004	Scan Rate (mV/s)
STEPSIZE	QUANT	1.00000E+001	Step Size (mV)
CYCLES	IQUANT	3	Cycles (#)
IMODE	SELECTOR	1	I/E Range Mode
IRANGE	QUANT	1.00000E-002	Max Current (mA)
AREA	QUANT	1.00000E+000	Sample Area (cm^2)
EQDELAY	QUANT	5.00000E+000	Equil. Time (s)
IRCOMP	SELECTOR	0	IRComp
PFCOR	QUANT	5.00000E+001	PF Corr. (ohm)
SAMPLINGMODE	SELECTOR	2	Sampling Mode
EOC	QUANT	0.1578694	Open Circuit (V)
ELECTRODETYPE	SELECTOR	0	Electrode Type
STRIPPING	TOGGLE	F	Used for Stripping
SEQUENCER	TOGGLE	TRUE	Run as Sequence
PSTATMODEL	IQUANT	7	Pstat Model
PSTATSECTION	LABEL	REF600P-43058	Pstat Section
PSTATSERIALNO	LABEL	43058	Pstat Serial Number
CTRLMODE	IQUANT	1	Control Mode
ELECTROMETER	IQUANT	0	RE=0 or CS=1
IESTAB	IQUANT	2	I/E Stability
CASPEED	IQUANT	4	Control Amp Speed
CONVENTION	IQUANT	1	Current Convention
ICHRANGE	IQUANT	2	Ich Range
ICHRANGEMODE	TOGGLE	F	Ich Auto Range
ICHOFFSETENABLE	TOGGLE	F	Ich Offset Enable
ICHOFFSET	QUANT	0	Ich Offset (V)
ICHFILTER	IQUANT	1	Ich Filter
VCHRANGE	IQUANT	2	Vch Range
VCHRANGEMODE	TOGGLE	F	Vch Auto Range
VCHOFFSETENABLE	TOGGLE	F	Vch Offset Enable
VCHOFFSET	QUANT	0	Vch Offset (V)
VCHFILTER	IQUANT	1	Vch Filter
ACHRANGE	IQUANT	2	Ach Range
ACHOFFSETENABLE	TOGGLE	F	Ach Offset Enable
ACHOFFSET	QUANT	0	Ach Offset (V)
ACHFILTER	IQUANT	1	Ach Filter
IERANGELOWERLIMIT	IQUANT	1	I/E Range Lower Limit
IERANGEMODE	TOGGLE	F	I/E AutoRange
IERANGE	IQUANT	7	I/E Range
POSFEEDENABLE	TOGGLE	F	Positive Feedback IR Comp
POSFEEDRESISTANCE	QUANT	0	Positive Feedback Resistance (ohm)
ACHSELECT	IQUANT	4	Ach Select
SENSECABLEID	IQUANT	7	Sense Cable ID
PWRCABLEID	IQUANT	7	Power Cable ID
DCCALDATE	LABEL	5/8/2025	DC Calibration Date
ACCALDATE	LABEL	5/8/2025	AC Calibration Date
THERMOSELECT	IQUANT	1	Thermo Select
FRAMEWORKVERSION	LABEL	7.10.4	Framework Version
INSTRUMENTVERSION	LABEL	5.01	Instrument Version
COMMVERSION	LABEL	5.10	Communications Version
CPUPLDVERSION	LABEL	6.00	CPU PLD Version
CTRLPLDVERSION	LABEL	3.21	CTRL PLD Version
PSTATPLDVERSION	LABEL	0.00	PSTAT PLD Version
CURVE1	TABLE
	Pt	T	Vf	Im	Vu	Sig	Ach	IERange	Over	Temp
	#	s	V vs. Ref.	A	V	V	V	#	bits	deg C
	0	0.0002	1.57912E-001	1.24056E-008	0.00000E+000	1.57850E-001	1.06522E-003	7	...........	-327.66
	1	0.0004	1.47950E-001	-1.30127E-006	0.00000E+000	1.47850E-001	9.65224E-004	7	...........	-327.66
	2	0.0006	1.38037E-001	-2.51544E-006	0.00000E+000	1.37850E-001	9.90224E-004	7	...........	-327.66
	3	0.0008	1.27912E-001	-3.52683E-006	0.00000E+000	1.27850E-001	1.16522E-003	7	...........	-327.66
	4	0.001	1.18000E-001	-4.40820E-006	0.00000E+000	1.17850E-001	9.15224E-004	7	...........	-327.66
	5	0.0012	1.07950E-001	-5.19155E-006	0.00000E+000	1.07850E-001	1.19022E-003	7	...........	-327.66
	6	0.0014	9.79873E-002	-5.90515E-006	0.00000E+000	9.78500E-002	1.14022E-003	7	...........	-327.66
	7	0.0016	8.80498E-002	-6.56549E-006	0.00000E+000	8.78500E-002	1.16522E-003	7	...........	-327.66
	8	0.0018	7.79873E-002	-7.18658E-006	0.00000E+000	7.78500E-002	1.19022E-003	7	...........	-327.66
	9	0.002	6.79373E-002	-7.76965E-006	0.00000E+000	6.78500E-002	1.09022E-003	7	...........	-327.66
	10	0.0022	5.79748E-002	-8.32498E-006	0.00000E+000	5.78500E-002	1.11522E-003	7	...........	-327.66
	11	0.0024	4.79373E-002	-8.85555E-006	0.00000E+000	4.78500E-002	1.06522E-003	7	...........	-327.66
	12	0.0026	3.79748E-002	-9.36487E-006	0.00000E+000	3.78500E-002	1.06522E-003	7	...........	-327.66
	13	0.0028	2.79373E-002	-9.86044E-006	0.00000E+000	2.78500E-002	1.01522E-003	7	...........	-327.66
	14	0.003	1.80373E-002	-1.03410E-005	0.00000E+000	1.78500E-002	1.24022E-003	7	...........	-327.66
	15	0.0032	8.01231E-003	-1.08078E-005	0.00000E+000	7.84999E-003	1.24022E-003	7	...........	-327.66
	16	0.0034	-1.97519E-003	-1.12656E-005	0.00000E+000	-2.15001E-003	1.29022E-003	7	...........	-327.66
	17	0.0036	-1.20002E-002	-1.17069E-005	0.00000E+000	-1.21500E-002	1.14022E-003	7	...........	-327.66
	18	0.0038	-2.20377E-002	-1.21450E-005	0.00000E+000	-2.21500E-002	1.04022E-003	7	...........	-327.66
	19	0.004	-3.20502E-002	-1.25796E-005	0.00000E+000	-3.21500E-002	1.04022E-003	7	...........	-327.66
	20	0.0042	-4.19877E-002	-1.30011E-005	0.00000E+000	-4.21500E-002	9.65224E-004	7	...........	-327.66
	21	0.0044	-5.20002E-002	-1.34209E-005	0.00000E+000	-5.21500E-002	1.01522E-003	7	...........	-327.66
	22	0.0046	-6.17877E-002	-1.38322E-005	0.00000E+000	-6.21500E-002	1.19022E-003	7	...........	-327.66
	23	0.0048	-7.21127E-002	-1.42405E-005	0.00000E+000	-7.21500E-002	1.04022E-003	7	...........	-327.66
	24	0.005	-8.19877E-002	-1.46461E-005	0.00000E+000	-8.21500E-002	1.14022E-003	7	...........	-327.66
	25	0.0052	-9.19502E-002	-1.50436E-005	0.00000E+000	-9.21500E-002	1.24022E-003	7	...........	-327.66
	26	0.0054	-1.02038E-001	-1.54410E-005	0.00000E+000	-1.02150E-001	9.15224E-004	7	...........	-327.66
	27	0.0056	-1.12013E-001	-1.58308E-005	0.00000E+000	-1.12150E-001	1.04022E-003	7	...........	-327.66
	28	0.0058	-1.22000E-001	-1.62251E-005	0.00000E+000	-1.22150E-001	1.16522E-003	7	...........	-327.66
	29	0.006	-1.32000E-001	-1.66129E-005	0.00000E+000	-1.32150E-001	1.14022E-003	7	...........	-327.66
	30	0.0062	-1.42025E-001	-1.70024E-005	0.00000E+000	-1.42150E-001	1.06522E-003	7	...........	-327.66
	31	0.0064	-1.52050E-001	-1.73850E-005	0.00000E+000	-1.52150E-001	1.06522E-003	7	...........	-327.66
	32	0.0066	-1.61963E-001	-1.77650E-005	0.00000E+000	-1.62150E-001	1.11522E-003	7	...........	-327.66
	33	0.0068	-1.71963E-001	-1.81393E-005	0.00000E+000	-1.72150E-001	1.06522E-003	7	...........	-327.66
	34	0.007	-1.81900E-001	-1.85246E-005	0.00000E+000	-1.82150E-001	1.14022E-003	7	...........	-327.66
	35	0.0072	-1.92063E-001	-1.89009E-005	0.00000E+000	-1.92150E-001	1.09022E-003	7	...........	-327.66
	36	0.0074	-2.01988E-001	-1.92775E-005	0.00000E+000	-2.02150E-001	1.21522E-003	7	...........	-327.66
	37	0.0076	-2.12063E-001	-1.96523E-005	0.00000E+000	-2.12150E-001	1.19022E-003	7	...........	-327.66
	38	0.0078	-2.21950E-001	-2.00283E-005	0.00000E+000	-2.22150E-001	1.21522E-003	7	...........	-327.66
	39	0.008	-2.31988E-001	-2.03989E-005	0.00000E+000	-2.32150E-001	1.14022E-003	7	...........	-327.66
	40	0.0082	-2.41663E-001	-2.07677E-005	0.00000E+000	-2.42150E-001	1.24022E-003	7	...........	-327.66
	41	0.0084	-2.52025E-001	-2.11402E-005	0.00000E+000	-2.52150E-001	1.16522E-003	7	...........	-327.66
	42	0.0086	-2.61900E-001	-2.15055E-005	0.00000E+000	-2.62150E-001	1.19022E-003	7	...........	-327.66
	43	0.0088	-2.71863E-001	-2.18728E-005	0.00000E+000	-2.72150E-001	1.06522E-003	7	...........	-327.66
	44	0.009	-2.81838E-001	-2.22396E-005	0.00000E+000	-2.82150E-001	1.24022E-003	7	...........	-327.66
	45	0.0092	-2.91975E-001	-2.26042E-005	0.00000E+000	-2.92150E-001	1.11522E-003	7	...........	-327.66
	46	0.0094	-3.01850E-001	-2.29645E-005	0.00000E+000	-3.02150E-001	1.19022E-003	7	...........	-327.66
	47	0.0096	-3.12063E-001	-2.33275E-005	0.00000E+000	-3.12150E-001	1.11522E-003	7	...........	-327.66
	48	0.0098	-3.21900E-001	-2.36856E-005	0.00000E+000	-3.22150E-001	1.21522E-003	7	...........	-327.66
	49	0.01	-3.32013E-001	-2.40421E-005	0.00000E+000	-3.32150E-001	1.21522E-003	7	...........	-327.66
	50	0.0102	-3.41938E-001	-2.43989E-005	0.00000E+000	-3.42150E-001	1.14022E-003	7	...........	-327.66
	51	0.0104	-3.52000E-001	-2.47600E-005	0.00000E+000	-3.52150E-001	1.16522E-003	7	...........	-327.66
	52	0.0106	-3.61850E-001	-2.51120E-005	0.00000E+000	-3.62150E-001	1.06522E-003	7	...........	-327.66
	53	0.0108	-3.71838E-001	-2.54651E-005	0.00000E+000	-3.72150E-001	9.65224E-004	7	...........	-327.66
	54	0.011	-3.81925E-001	-2.58156E-005	0.00000E+000	-3.82150E-001	1.09022E-003	7	...........	-327.66
	55	0.0112	-3.91938E-001	-2.61649E-005	0.00000E+000	-3.92150E-001	9.40224E-004	7	...........	-327.66
	56	0.0114	-4.01900E-001	-2.65082E-005	0.00000E+000	-4.02150E-001	1.21522E-003	7	...........	-327.66
	57	0.0116	-4.11988E-001	-2.68548E-005	0.00000E+000	-4.12150E-001	1.09022E-003	7	...........	-327.66
	58	0.0118	-4.21713E-001	-2.72008E-005	0.00000E+000	-4.22150E-001	1.19022E-003	7	...........	-327.66
	59	0.012	-4.31963E-001	-2.75436E-005	0.00000E+000	-4.32150E-001	1.06522E-003	7	...........	-327.66
	60	0.0122	-4.41775E-001	-2.78809E-005	0.00000E+000	-4.42150E-001	1.29022E-003	7	...........	-327.66
	61	0.0124	-4.51875E-001	-2.82204E-005	0.00000E+000	-4.52150E-001	1.21522E-003	7	...........	-327.66
	62	0.0126	-4.61875E-001	-2.85547E-005	0.00000E+000	-4.62150E-001	1.06522E-003	7	...........	-327.66
	63	0.0128	-4.71925E-001	-2.88913E-005	0.00000E+000	-4.72150E-001	1.16522E-003	7	...........	-327.66
	64	0.013	-4.81825E-001	-2.92241E-005	0.00000E+000	-4.82150E-001	1.16522E-003	7	...........	-327.66
	65	0.0132	-4.91925E-001	-2.95511E-005	0.00000E+000	-4.92150E-001	1.19022E-003	7	...........	-327.66
	66	0.0134	-5.01875E-001	-2.98804E-005	0.00000E+000	-5.02150E-001	1.19022E-003	7	...........	-327.66
	67	0.0136	-5.11950E-001	-3.02010E-005	0.00000E+000	-5.12150E-001	1.11522E-003	7	...........	-327.66
	68	0.0138	-5.21713E-001	-3.05255E-005	0.00000E+000	-5.22150E-001	1.29022E-003	7	...........	-327.66
	69	0.014	-5.31988E-001	-3.08443E-005	0.00000E+000	-5.32150E-001	1.06522E-003	7	...........	-327.66
	70	0.0142	-5.41900E-001	-3.11581E-005	0.00000E+000	-5.42150E-001	1.01522E-003	7	...........	-327.66
	71	0.0144	-5.51875E-001	-3.14696E-005	0.00000E+000	-5.52150E-001	1.16522E-003	7	...........	-327.66
	72	0.0146	-5.61913E-001	-3.17789E-005	0.00000E+000	-5.62150E-001	1.04022E-003	7	...........	-327.66
	73	0.0148	-5.71963E-001	-3.20862E-005	0.00000E+000	-5.72150E-001	1.19022E-003	7	...........	-327.66
	74	0.015	-5.81875E-001	-3.23873E-005	0.00000E+000	-5.82150E-001	1.06522E-003	7	...........	-327.66
	75	0.0152	-5.91813E-001	-3.26850E-005	0.00000E+000	-5.92150E-001	1.14022E-003	7	...........	-327.66
	76	0.0154	-6.01750E-001	-3.29828E-005	0.00000E+000	-6.02150E-001	1.19022E-003	7	...........	-327.66
	77	0.0156	-6.11850E-001	-3.32741E-005	0.00000E+000	-6.12150E-001	1.14022E-003	7	...........	-327.66
	78	0.0158	-6.21700E-001	-3.35642E-005	0.00000E+000	-6.22150E-001	9.90224E-004	7	...........	-327.66
	79	0.016	-6.31738E-001	-3.38465E-005	0.00000E+000	-6.32150E-001	1.16522E-003	7	...........	-327.66
	80	0.0162	-6.41900E-001	-3.41260E-005	0.00000E+000	-6.42150E-001	1.19022E-003	7	...........	-327.66
	81	0.0164	-6.51788E-001	-3.43973E-005	0.00000E+000	-6.52150E-001	1.14022E-003	7	...........	-327.66
	82	0.0166	-6.61763E-001	-3.46656E-005	0.00000E+000	-6.62150E-001	9.40224E-004	7	...........	-327.66
	83	0.0168	-6.71900E-001	-3.49291E-005	0.00000E+000	-6.72150E-001	1.11522E-003	7	...........	-327.66
	84	0.017	-6.81713E-001	-3.51879E-005	0.00000E+000	-6.82150E-001	1.14022E-003	7	...........	-327.66
	85	0.0172	-6.91763E-001	-3.54389E-005	0.00000E+000	-6.92150E-001	1.11522E-003	7	...........	-327.66
	86	0.0174	-7.01625E-001	-3.56835E-005	0.00000E+000	-7.02150E-001	9.65224E-004	7	...........	-327.66
	87	0.0176	-7.11738E-001	-3.59250E-005	0.00000E+000	-7.12150E-001	1.19022E-003	7	...........	-327.66
	88	0.0178	-7.21850E-001	-3.61578E-005	0.00000E+000	-7.22150E-001	1.14022E-003	7	...........	-327.66
	89	0.018	-7.31750E-001	-3.63858E-005	0.00000E+000	-7.32150E-001	1.16522E-003	7	...........	-327.66
	90	0.0182	-7.41775E-001	-3.65991E-005	0.00000E+000	-7.42150E-001	1.01522E-003	7	...........	-327.66
	91	0.0184	-7.51825E-001	-3.68104E-005	0.00000E+000	-7.52150E-001	1.04022E-003	7	...........	-327.66
	92	0.0186	-7.61800E-001	-3.70101E-005	0.00000E+000	-7.62150E-001	1.16522E-003	7	...........	-327.66
	93	0.0188	-7.71838E-001	-3.72042E-005	0.00000E+000	-7.72150E-001	1.09022E-003	7	...........	-327.66
	94	0.019	-7.81713E-001	-3.73864E-005	0.00000E+000	-7.82150E-001	1.14022E-003	7	...........	-327.66
	95	0.0192	-7.91863E-001	-3.75570E-005	0.00000E+000	-7.92150E-001	1.14022E-003	7	...........	-327.66
	96	0.0194	-8.01775E-001	-3.77160E-005	0.00000E+000	-8.02150E-001	1.21522E-003	7	...........	-327.66
	97	0.0196	-8.11875E-001	-3.78605E-005	0.00000E+000	-8.12150E-001	1.21522E-003	7	...........	-327.66
	98	0.0198	-8.21700E-001	-3.79978E-005	0.00000E+000	-8.22150E-001	1.14022E-003	7	...........	-327.66
	99	0.02	-8.31888E-001	-3.81148E-005	0.00000E+000	-8.32150E-001	1.21522E-003	7	...........	-327.66
	100	0.0202	-8.41800E-001	-3.82213E-005	0.00000E+000	-8.42150E-001	1.29022E-003	7	...........	-327.66
	101	0.0204	-8.51788E-001	-3.83073E-005	0.00000E+000	-8.52150E-001	1.14022E-003	7	...........	-327.66
	102	0.0206	-8.61738E-001	-3.83753E-005	0.00000E+000	-8.62150E-001	1.21522E-003	7	...........	-327.66
	103	0.0208	-8.71863E-001	-3.84261E-005	0.00000E+000	-8.72150E-001	1.14022E-003	7	...........	-327.66
	104	0.021	-8.81713E-001	-3.84578E-005	0.00000E+000	-8.82150E-001	1.24022E-003	7	...........	-327.66
	105	0.0212	-8.91875E-001	-3.84651E-005	0.00000E+000	-8.92150E-001	1.14022E-003	7	...........	-327.66
	106	0.0214	-9.01750E-001	-3.84486E-005	0.00000E+000	-9.02150E-001	1.14022E-003	7	...........	-327.66
	107	0.0216	-8.92025E-001	-3.60743E-005	0.00000E+000	-8.92150E-001	1.24022E-003	7	...........	-327.66
	108	0.0218	-8.81688E-001	-3.37039E-005	0.00000E+000	-8.82150E-001	1.16522E-003	7	...........	-327.66
	109	0.022	-8.71900E-001	-3.16304E-005	0.00000E+000	-8.72150E-001	9.90224E-004	7	...........	-327.66
	110	0.0222	-8.61838E-001	-2.97589E-005	0.00000E+000	-8.62150E-001	1.16522E-003	7	...........	-327.66
	111	0.0224	-8.51863E-001	-2.80347E-005	0.00000E+000	-8.52150E-001	1.01522E-003	7	...........	-327.66
	112	0.0226	-8.41963E-001	-2.64222E-005	0.00000E+000	-8.42150E-001	1.19022E-003	7	...........	-327.66
	113	0.0228	-8.31950E-001	-2.48962E-005	0.00000E+000	-8.32150E-001	1.11522E-003	7	...........	-327.66
	114	0.023	-8.21775E-001	-2.34400E-005	0.00000E+000	-8.22150E-001	1.21522E-003	7	...........	-327.66
	115	0.0232	-8.11975E-001	-2.20456E-005	0.00000E+000	-8.12150E-001	1.06522E-003	7	...........	-327.66
	116	0.0234	-8.01863E-001	-2.07059E-005	0.00000E+000	-8.02150E-001	1.06522E-003	7	...........	-327.66
	117	0.0236	-7.91900E-001	-1.94085E-005	0.00000E+000	-7.92150E-001	1.14022E-003	7	...........	-327.66
	118	0.0238	-7.81863E-001	-1.81528E-005	0.00000E+000	-7.82150E-001	1.16522E-003	7	...........	-327.66
	119	0.024	-7.71950E-001	-1.69422E-005	0.00000E+000	-7.72150E-001	1.09022E-003	7	...........	-327.66
	120	0.0242	-7.61950E-001	-1.57612E-005	0.00000E+000	-7.62150E-001	1.14022E-003	7	...........	-327.66
	121	0.0244	-7.52000E-001	-1.46141E-005	0.00000E+000	-7.52150E-001	1.19022E-003	7	...........	-327.66
	122	0.0246	-7.41825E-001	-1.35017E-005	0.00000E+000	-7.42150E-001	1.11522E-003	7	...........	-327.66
	123	0.0248	-7.31850E-001	-1.24145E-005	0.00000E+000	-7.32150E-001	1.24022E-003	7	...........	-327.66
	124	0.025	-7.21863E-001	-1.13561E-005	0.00000E+000	-7.22150E-001	1.24022E-003	7	...........	-327.66
	125	0.0252	-7.11925E-001	-1.03235E-005	0.00000E+000	-7.12150E-001	1.14022E-003	7	...........	-327.66
	126	0.0254	-7.01713E-001	-9.31612E-006	0.00000E+000	-7.02150E-001	1.06522E-003	7	...........	-327.66
	127	0.0256	-6.91925E-001	-8.33648E-006	0.00000E+000	-6.92150E-001	1.14022E-003	7	...........	-327.66
	128	0.0258	-6.81888E-001	-7.37735E-006	0.00000E+000	-6.82150E-001	1.24022E-003	7	...........	-327.66
	129	0.026	-6.71950E-001	-6.44197E-006	0.00000E+000	-6.72150E-001	1.21522E-003	7	...........	-327.66
	130	0.0262	-6.61975E-001	-5.52410E-006	0.00000E+000	-6.62150E-001	1.24022E-003	7	...........	-327.66
	131	0.0264	-6.51913E-001	-4.62998E-006	0.00000E+000	-6.52150E-001	1.29022E-003	7	...........	-327.66
	132	0.0266	-6.41875E-001	-3.75361E-006	0.00000E+000	-6.42150E-001	1.21522E-003	7	...........	-327.66
	133	0.0268	-6.32013E-001	-2.89799E-006	0.00000E+000	-6.32150E-001	1.11522E-003	7	...........	-327.66
	134	0.027	-6.21950E-001	-2.05888E-006	0.00000E+000	-6.22150E-001	1.24022E-003	7	...........	-327.66
	135	0.0272	-6.11975E-001	-1.23601E-006	0.00000E+000	-6.12150E-001	1.21522E-003	7	...........	-327.66
	136	0.0274	-6.01863E-001	-4.34405E-007	0.00000E+000	-6.02150E-001	1.16522E-003	7	...........	-327.66
	137	0.0276	-5.92088E-001	3.58953E-007	0.00000E+000	-5.92150E-001	1.19022E-003	7	...........	-327.66
	138	0.0278	-5.81975E-001	1.13431E-006	0.00000E+000	-5.82150E-001	1.16522E-003	7	...........	-327.66
	139	0.028	-5.72075E-001	1.89366E-006	0.00000E+000	-5.72150E-001	1.21522E-003	7	...........	-327.66
	140	0.0282	-5.62063E-001	2.64601E-006	0.00000E+000	-5.62150E-001	1.29022E-003	7	...........	-327.66
	141	0.0284	-5.52025E-001	3.38537E-006	0.00000E+000	-5.52150E-001	1.16522E-003	7	...........	-327.66
	142	0.0286	-5.42088E-001	4.11246E-006	0.00000E+000	-5.42150E-001	1.19022E-003	7	...........	-327.66
	143	0.0288	-5.32063E-001	4.82531E-006	0.00000E+000	-5.32150E-001	1.11522E-003	7	...........	-327.66
	144	0.029	-5.22000E-001	5.53466E-006	0.00000E+000	-5.22150E-001	1.14022E-003	7	...........	-327.66
	145	0.0292	-5.12088E-001	6.23300E-006	0.00000E+000	-5.12150E-001	1.11522E-003	7	...........	-327.66
	146	0.0294	-5.01938E-001	6.92085E-006	0.00000E+000	-5.02150E-001	1.24022E-003	7	...........	-327.66
	147	0.0296	-4.92063E-001	7.60469E-006	0.00000E+000	-4.92150E-001	1.19022E-003	7	...........	-327.66
	148	0.0298	-4.82063E-001	8.27953E-006	0.00000E+000	-4.82150E-001	1.16522E-003	7	...........	-327.66
	149	0.03	-4.72138E-001	8.94537E-006	0.00000E+000	-4.72150E-001	1.04022E-003	7	...........	-327.66
	150	0.0302	-4.62188E-001	9.60496E-006	0.00000E+000	-4.62150E-001	1.09022E-003	7	...........	-327.66
	151	0.0304	-4.51963E-001	1.02598E-005	0.00000E+000	-4.52150E-001	1.21522E-003	7	...........	-327.66
	152	0.0306	-4.42075E-001	1.09061E-005	0.00000E+000	-4.42150E-001	9.90224E-004	7	...........	-327.66
	153	0.0308	-4.32113E-001	1.15517E-005	0.00000E+000	-4.32150E-001	1.11522E-003	7	...........	-327.66
	154	0.031	-4.21988E-001	1.21828E-005	0.00000E+000	-4.22150E-001	1.14022E-003	7	...........	-327.66
	155	0.0312	-4.12025E-001	1.28144E-005	0.00000E+000	-4.12150E-001	1.24022E-003	7	...........	-327.66
	156	0.0314	-4.02138E-001	1.34365E-005	0.00000E+000	-4.02150E-001	9.90224E-004	7	...........	-327.66
	157	0.0316	-3.92113E-001	1.40483E-005	0.00000E+000	-3.92150E-001	1.09022E-003	7	...........	-327.66
	158	0.0318	-3.82113E-001	1.46607E-005	0.00000E+000	-3.82150E-001	1.14022E-003	7	...........	-327.66
	159	0.032	-3.72025E-001	1.52572E-005	0.00000E+000	-3.72150E-001	1.06522E-003	7	...........	-327.66
	160	0.0322	-3.62038E-001	1.58476E-005	0.00000E+000	-3.62150E-001	1.04022E-003	7	...........	-327.66
	161	0.0324	-3.52188E-001	1.64331E-005	0.00000E+000	-3.52150E-001	1.09022E-003	7	...........	-327.66
	162	0.0326	-3.42225E-001	1.70080E-005	0.00000E+000	-3.42150E-001	9.90224E-004	7	...........	-327.66
	163	0.0328	-3.32088E-001	1.75735E-005	0.00000E+000	-3.32150E-001	1.11522E-003	7	...........	-327.66
	164	0.033	-3.22113E-001	1.81304E-005	0.00000E+000	-3.22150E-001	1.11522E-003	7	...........	-327.66
	165	0.0332	-3.12063E-001	1.86757E-005	0.00000E+000	-3.12150E-001	1.19022E-003	7	...........	-327.66
	166	0.0334	-3.02038E-001	1.92098E-005	0.00000E+000	-3.02150E-001	1.29022E-003	7	...........	-327.66
	167	0.0336	-2.92050E-001	1.97328E-005	0.00000E+000	-2.92150E-001	1.14022E-003	7	...........	-327.66
	168	0.0338	-2.82138E-001	2.02407E-005	0.00000E+000	-2.82150E-001	1.19022E-003	7	...........	-327.66
	169	0.034	-2.72100E-001	2.07462E-005	0.00000E+000	-2.72150E-001	1.09022E-003	7	...........	-327.66
	170	0.0342	-2.62125E-001	2.12333E-005	0.00000E+000	-2.62150E-001	1.06522E-003	7	...........	-327.66
	171	0.0344	-2.52088E-001	2.17079E-005	0.00000E+000	-2.52150E-001	9.15224E-004	7	...........	-327.66
	172	0.0346	-2.41963E-001	2.21699E-005	0.00000E+000	-2.42150E-001	1.09022E-003	7	...........	-327.66
	173	0.0348	-2.32075E-001	2.26217E-005	0.00000E+000	-2.32150E-001	1.04022E-003	7	...........	-327.66
	174	0.035	-2.22113E-001	2.30565E-005	0.00000E+000	-2.22150E-001	1.04022E-003	7	...........	-327.66
	175	0.0352	-2.12050E-001	2.34784E-005	0.00000E+000	-2.12150E-001	1.14022E-003	7	...........	-327.66
	176	0.0354	-2.02113E-001	2.38899E-005	0.00000E+000	-2.02150E-001	9.65224E-004	7	...........	-327.66
	177	0.0356	-1.92138E-001	2.42880E-005	0.00000E+000	-1.92150E-001	9.90224E-004	7	...........	-327.66
	178	0.0358	-1.82150E-001	2.46713E-005	0.00000E+000	-1.82150E-001	1.09022E-003	7	...........	-327.66
	179	0.036	-1.72075E-001	2.50418E-005	0.00000E+000	-1.72150E-001	1.09022E-003	7	...........	-327.66
	180	0.0362	-1.62275E-001	2.53966E-005	0.00000E+000	-1.62150E-001	1.09022E-003	7	...........	-327.66
	181	0.0364	-1.52125E-001	2.57419E-005	0.00000E+000	-1.52150E-001	1.21522E-003	7	...........	-327.66
	182	0.0366	-1.42188E-001	2.60687E-005	0.00000E+000	-1.42150E-001	1.04022E-003	7	...........	-327.66
	183	0.0368	-1.32125E-001	2.63930E-005	0.00000E+000	-1.32150E-001	1.06522E-003	7	...........	-327.66
	184	0.037	-1.22163E-001	2.66938E-005	0.00000E+000	-1.22150E-001	1.16522E-003	7	...........	-327.66
	185	0.0372	-1.12188E-001	2.69881E-005	0.00000E+000	-1.12150E-001	1.11522E-003	7	...........	-327.66
	186	0.0374	-1.02238E-001	2.72681E-005	0.00000E+000	-1.02150E-001	1.01522E-003	7	...........	-327.66
	187	0.0376	-9.22252E-002	2.75369E-005	0.00000E+000	-9.21500E-002	1.01522E-003	7	...........	-327.66
	188	0.0378	-8.22502E-002	2.77999E-005	0.00000E+000	-8.21500E-002	1.09022E-003	7	...........	-327.66
	189	0.038	-7.22002E-002	2.80440E-005	0.00000E+000	-7.21500E-002	1.19022E-003	7	...........	-327.66
	190	0.0382	-6.22377E-002	2.82810E-005	0.00000E+000	-6.21500E-002	1.04022E-003	7	...........	-327.66
	191	0.0384	-5.20502E-002	2.85050E-005	0.00000E+000	-5.21500E-002	1.11522E-003	7	...........	-327.66
	192	0.0386	-4.21377E-002	2.87218E-005	0.00000E+000	-4.21500E-002	1.14022E-003	7	...........	-327.66
	193	0.0388	-3.21252E-002	2.89241E-005	0.00000E+000	-3.21500E-002	1.24022E-003	7	...........	-327.66
	194	0.039	-2.22127E-002	2.91196E-005	0.00000E+000	-2.21500E-002	1.19022E-003	7	...........	-327.66
	195	0.0392	-1.22127E-002	2.92991E-005	0.00000E+000	-1.21500E-002	9.90224E-004	7	...........	-327.66
	196	0.0394	-2.22519E-003	2.94772E-005	0.00000E+000	-2.15001E-003	1.09022E-003	7	...........	-327.66
	197	0.0396	7.87481E-003	2.96409E-005	0.00000E+000	7.84999E-003	1.24022E-003	7	...........	-327.66
	198	0.0398	1.79373E-002	2.97995E-005	0.00000E+000	1.78500E-002	1.14022E-003	7	...........	-327.66
	199	0.04	2.79373E-002	2.99457E-005	0.00000E+000	2.78500E-002	1.04022E-003	7	...........	-327.66
	200	0.0402	3.78748E-002	3.00860E-005	0.00000E+000	3.78500E-002	1.06522E-003	7	...........	-327.66
	201	0.0404	4.79123E-002	3.02158E-005	0.00000E+000	4.78500E-002	1.14022E-003	7	...........	-327.66
	202	0.0406	5.78623E-002	3.03373E-005	0.00000E+000	5.78500E-002	1.06522E-003	7	...........	-327.66
	203	0.0408	6.79373E-002	3.04511E-005	0.00000E+000	6.78500E-002	1.14022E-003	7	...........	-327.66
	204	0.041	7.78123E-002	3.05616E-005	0.00000E+000	7.78500E-002	1.06522E-003	7	...........	-327.66
	205	0.0412	8.78748E-002	3.06633E-005	0.00000E+000	8.78500E-002	1.24022E-003	7	...........	-327.66
	206	0.0414	9.78248E-002	3.07528E-005	0.00000E+000	9.78500E-002	1.24022E-003	7	...........	-327.66
	207	0.0416	1.07912E-001	3.08406E-005	0.00000E+000	1.07850E-001	9.90224E-004	7	...........	-327.66
	208	0.0418	1.17887E-001	3.09209E-005	0.00000E+000	1.17850E-001	9.90224E-004	7	...........	-327.66
	209	0.042	1.27937E-001	3.09939E-005	0.00000E+000	1.27850E-001	1.24022E-003	7	...........	-327.66
	210	0.0422	1.37837E-001	3.10604E-005	0.00000E+000	1.37850E-001	1.14022E-003	7	...........	-327.66
	211	0.0424	1.47937E-001	3.11151E-005	0.00000E+000	1.47850E-001	1.06522E-003	7	...........	-327.66
	212	0.0426	1.57850E-001	3.11686E-005	0.00000E+000	1.57850E-001	1.16522E-003	7	...........	-327.66
	213	0.0428	1.67800E-001	3.12107E-005	0.00000E+000	1.67850E-001	1.29022E-003	7	...........	-327.66
	214	0.043	1.77887E-001	3.12519E-005	0.00000E+000	1.77850E-001	1.16522E-003	7	...........	-327.66
	215	0.0432	1.87925E-001	3.12852E-005	0.00000E+000	1.87850E-001	1.04022E-003	7	...........	-327.66
	216	0.0434	1.97862E-001	3.13087E-005	0.00000E+000	1.97850E-001	9.90224E-004	7	...........	-327.66
	217	0.0436	2.07787E-001	3.13267E-005	0.00000E+000	2.07850E-001	1.04022E-003	7	...........	-327.66
	218	0.0438	2.17787E-001	3.13372E-005	0.00000E+000	2.17850E-001	1.14022E-003	7	...........	-327.66
	219	0.044	2.27875E-001	3.13452E-005	0.00000E+000	2.27850E-001	1.16522E-003	7	...........	-327.66
	220	0.0442	2.37775E-001	3.13449E-005	0.00000E+000	2.37850E-001	1.19022E-003	7	...........	-327.66
	221	0.0444	2.47775E-001	3.13387E-005	0.00000E+000	2.47850E-001	9.65224E-004	7	...........	-327.66
	222	0.0446	2.57800E-001	3.13239E-005	0.00000E+000	2.57850E-001	1.19022E-003	7	...........	-327.66
	223	0.0448	2.67787E-001	3.13032E-005	0.00000E+000	2.67850E-001	1.09022E-003	7	...........	-327.66
	224	0.045	2.77837E-001	3.12789E-005	0.00000E+000	2.77850E-001	1.19022E-003	7	...........	-327.66
	225	0.0452	2.87837E-001	3.12454E-005	0.00000E+000	2.87850E-001	1.29022E-003	7	...........	-327.66
	226	0.0454	2.97887E-001	3.12112E-005	0.00000E+000	2.97850E-001	1.11522E-003	7	...........	-327.66
	227	0.0456	3.07875E-001	3.11686E-005	0.00000E+000	3.07850E-001	1.14022E-003	7	...........	-327.66
	228	0.0458	3.17900E-001	3.11261E-005	0.00000E+000	3.17850E-001	1.09022E-003	7	...........	-327.66
	229	0.046	3.27887E-001	3.10744E-005	0.00000E+000	3.27850E-001	1.04022E-003	7	...........	-327.66
	230	0.0462	3.37800E-001	3.10244E-005	0.00000E+000	3.37850E-001	1.06522E-003	7	...........	-327.66
	231	0.0464	3.47950E-001	3.09679E-005	0.00000E+000	3.47850E-001	1.14022E-003	7	...........	-327.66
	232	0.0466	3.57862E-001	3.09069E-005	0.00000E+000	3.57850E-001	1.24022E-003	7	...........	-327.66
	233	0.0468	3.67875E-001	3.08441E-005	0.00000E+000	3.67850E-001	1.11522E-003	7	...........	-327.66
	234	0.047	3.77875E-001	3.07798E-005	0.00000E+000	3.77850E-001	1.19022E-003	7	...........	-327.66
	235	0.0472	3.87937E-001	3.07101E-005	0.00000E+000	3.87850E-001	1.11522E-003	7	...........	-327.66
	236	0.0474	3.97837E-001	3.06351E-005	0.00000E+000	3.97850E-001	1.09022E-003	7	...........	-327.66
	237	0.0476	4.07800E-001	3.05663E-005	0.00000E+000	4.07850E-001	1.24022E-003	7	...........	-327.66
	238	0.0478	4.17775E-001	3.04923E-005	0.00000E+000	4.17850E-001	1.11522E-003	7	...........	-327.66
	239	0.048	4.27825E-001	3.04198E-005	0.00000E+000	4.27850E-001	1.16522E-003	7	...........	-327.66
	240	0.0482	4.37762E-001	3.03455E-005	0.00000E+000	4.37850E-001	1.29022E-003	7	...........	-327.66
	241	0.0484	4.47825E-001	3.02728E-005	0.00000E+000	4.47850E-001	1.16522E-003	7	...........	-327.66
	242	0.0486	4.57775E-001	3.01978E-005	0.00000E+000	4.57850E-001	1.24022E-003	7	...........	-327.66
	243	0.0488	4.67850E-001	3.01208E-005	0.00000E+000	4.67850E-001	1.19022E-003	7	...........	-327.66
	244	0.049	4.77775E-001	3.00492E-005	0.00000E+000	4.77850E-001	1.14022E-003	7	...........	-327.66
	245	0.0492	4.87887E-001	2.99797E-005	0.00000E+000	4.87850E-001	1.14022E-003	7	...........	-327.66
	246	0.0494	4.97850E-001	2.99117E-005	0.00000E+000	4.97850E-001	1.14022E-003	7	...........	-327.66
	247	0.0496	5.07875E-001	2.98450E-005	0.00000E+000	5.07850E-001	1.11522E-003	7	...........	-327.66
	248	0.0498	5.17850E-001	2.97780E-005	0.00000E+000	5.17850E-001	1.29022E-003	7	...........	-327.66
	249	0.05	5.27762E-001	2.97212E-005	0.00000E+000	5.27850E-001	1.04022E-003	7	...........	-327.66
	250	0.0502	5.37662E-001	2.96624E-005	0.00000E+000	5.37850E-001	1.11522E-003	7	...........	-327.66
	251	0.0504	5.47875E-001	2.96092E-005	0.00000E+000	5.47850E-001	1.09022E-003	7	...........	-327.66
	252	0.0506	5.57762E-001	2.95624E-005	0.00000E+000	5.57850E-001	1.19022E-003	7	...........	-327.66
	253	0.0508	5.67775E-001	2.95137E-005	0.00000E+000	5.67850E-001	1.21522E-003	7	...........	-327.66
	254	0.051	5.77700E-001	2.94749E-005	0.00000E+000	5.77850E-001	1.11522E-003	7	...........	-327.66
	255	0.0512	5.87837E-001	2.94399E-005	0.00000E+000	5.87850E-001	1.29022E-003	7	...........	-327.66
	256	0.0514	5.97775E-001	2.94074E-005	0.00000E+000	5.97850E-001	1.14022E-003	7	...........	-327.66
CURVE2	TABLE
	Pt	T	Vf	Im	Vu	Sig	Ach	IERange	Over	Temp
	#	s	V vs. Ref.	A	V	V	V	#	bits	deg C
	257	0.0516	5.89950E-001	2.70186E-005	0.00000E+000	5.90000E-001	1.19022E-003	7	...........	-327.66
	258	0.0518	5.79937E-001	2.45072E-005	0.00000E+000	5.80000E-001	1.14022E-003	7	...........	-327.66
	259	0.052	5.69987E-001	2.23992E-005	0.00000E+000	5.70000E-001	1.24022E-003	7	...........	-327.66
	260	0.0522	5.59912E-001	2.05947E-005	0.00000E+000	5.60000E-001	1.24022E-003	7	...........	-327.66
	261	0.0524	5.50075E-001	1.89915E-005	0.00000E+000	5.50000E-001	1.14022E-003	7	...........	-327.66
	262	0.0526	5.39987E-001	1.75470E-005	0.00000E+000	5.40000E-001	1.09022E-003	7	...........	-327.66
	263	0.0528	5.30037E-001	1.62254E-005	0.00000E+000	5.30000E-001	1.19022E-003	7	...........	-327.66
	264	0.053	5.19962E-001	1.49997E-005	0.00000E+000	5.20000E-001	1.04022E-003	7	...........	-327.66
	265	0.0532	5.09975E-001	1.38583E-005	0.00000E+000	5.10000E-001	1.19022E-003	7	...........	-327.66
	266	0.0534	4.99987E-001	1.27811E-005	0.00000E+000	5.00000E-001	1.01522E-003	7	...........	-327.66
	267	0.0536	4.89950E-001	1.17675E-005	0.00000E+000	4.90000E-001	1.01522E-003	7	...........	-327.66
	268	0.0538	4.79937E-001	1.08061E-005	0.00000E+000	4.80000E-001	1.09022E-003	7	...........	-327.66
	269	0.054	4.70025E-001	9.89325E-006	0.00000E+000	4.70000E-001	1.09022E-003	7	...........	-327.66
	270	0.0542	4.59962E-001	9.01038E-006	0.00000E+000	4.60000E-001	1.24022E-003	7	...........	-327.66
	271	0.0544	4.49987E-001	8.17152E-006	0.00000E+000	4.50000E-001	1.14022E-003	7	...........	-327.66
	272	0.0546	4.39987E-001	7.36141E-006	0.00000E+000	4.40000E-001	1.21522E-003	7	...........	-327.66
	273	0.0548	4.30037E-001	6.58180E-006	0.00000E+000	4.30000E-001	1.24022E-003	7	...........	-327.66
	274	0.055	4.20012E-001	5.83320E-006	0.00000E+000	4.20000E-001	1.06522E-003	7	...........	-327.66
	275	0.0552	4.09950E-001	5.10510E-006	0.00000E+000	4.10000E-001	1.06522E-003	7	...........	-327.66
	276	0.0554	3.99975E-001	4.39925E-006	0.00000E+000	4.00000E-001	1.11522E-003	7	...........	-327.66
	277	0.0556	3.89987E-001	3.71291E-006	0.00000E+000	3.90000E-001	1.09022E-003	7	...........	-327.66
	278	0.0558	3.79987E-001	3.04982E-006	0.00000E+000	3.80000E-001	1.01522E-003	7	...........	-327.66
	279	0.056	3.70012E-001	2.40423E-006	0.00000E+000	3.70000E-001	1.19022E-003	7	...........	-327.66
	280	0.0562	3.59987E-001	1.77615E-006	0.00000E+000	3.60000E-001	1.19022E-003	7	...........	-327.66
	281	0.0564	3.50062E-001	1.16306E-006	0.00000E+000	3.50000E-001	1.16522E-003	7	...........	-327.66
	282	0.0566	3.39937E-001	5.61980E-007	0.00000E+000	3.40000E-001	1.06522E-003	7	...........	-327.66
	283	0.0568	3.30137E-001	-1.98488E-008	0.00000E+000	3.30000E-001	1.21522E-003	7	...........	-327.66
	284	0.057	3.20037E-001	-5.91177E-007	0.00000E+000	3.20000E-001	1.11522E-003	7	...........	-327.66
	285	0.0572	3.10162E-001	-1.14950E-006	0.00000E+000	3.10000E-001	1.14022E-003	7	...........	-327.66
	286	0.0574	3.00062E-001	-1.69858E-006	0.00000E+000	3.00000E-001	1.14022E-003	7	...........	-327.66
	287	0.0576	2.90100E-001	-2.23615E-006	0.00000E+000	2.90000E-001	1.14022E-003	7	...........	-327.66
	288	0.0578	2.80012E-001	-2.76147E-006	0.00000E+000	2.80000E-001	1.14022E-003	7	...........	-327.66
	289	0.058	2.70125E-001	-3.27854E-006	0.00000E+000	2.70000E-001	1.11522E-003	7	...........	-327.66
	290	0.0582	2.60012E-001	-3.78836E-006	0.00000E+000	2.60000E-001	1.19022E-003	7	...........	-327.66
	291	0.0584	2.50162E-001	-4.28493E-006	0.00000E+000	2.50000E-001	1.29022E-003	7	...........	-327.66
	292	0.0586	2.40100E-001	-4.77550E-006	0.00000E+000	2.40000E-001	1.11522E-003	7	...........	-327.66
	293	0.0588	2.30162E-001	-5.25981E-006	0.00000E+000	2.30000E-001	1.09022E-003	7	...........	-327.66
	294	0.059	2.19975E-001	-5.73288E-006	0.00000E+000	2.20000E-001	1.16522E-003	7	...........	-327.66
	295	0.0592	2.10162E-001	-6.20294E-006	0.00000E+000	2.10000E-001	1.19022E-003	7	...........	-327.66
	296	0.0594	1.99975E-001	-6.66625E-006	0.00000E+000	2.00000E-001	1.16522E-003	7	...........	-327.66
	297	0.0596	1.90137E-001	-7.12132E-006	0.00000E+000	1.90000E-001	1.09022E-003	7	...........	-327.66
	298	0.0598	1.80025E-001	-7.57363E-006	0.00000E+000	1.80000E-001	1.11522E-003	7	...........	-327.66
	299	0.06	1.70287E-001	-8.01369E-006	0.00000E+000	1.70000E-001	1.14022E-003	7	...........	-327.66
	300	0.0602	1.60187E-001	-8.45575E-006	0.00000E+000	1.60000E-001	1.14022E-003	7	...........	-327.66
	301	0.0604	1.50225E-001	-8.88956E-006	0.00000E+000	1.50000E-001	1.21522E-003	7	...........	-327.66
	302	0.0606	1.40125E-001	-9.32362E-006	0.00000E+000	1.40000E-001	1.09022E-003	7	...........	-327.66
	303	0.0608	1.30250E-001	-9.74392E-006	0.00000E+000	1.30000E-001	1.16522E-003	7	...........	-327.66
	304	0.061	1.20100E-001	-1.01657E-005	0.00000E+000	1.20000E-001	1.24022E-003	7	...........	-327.66
	305	0.0612	1.10187E-001	-1.05838E-005	0.00000E+000	1.10000E-001	1.11522E-003	7	...........	-327.66
	306	0.0614	1.00075E-001	-1.09948E-005	0.00000E+000	1.00000E-001	1.11522E-003	7	...........	-327.66
	307	0.0616	9.02623E-002	-1.14042E-005	0.00000E+000	9.00000E-002	1.19022E-003	7	...........	-327.66
	308	0.0618	8.00248E-002	-1.18100E-005	0.00000E+000	8.00000E-002	1.19022E-003	7	...........	-327.66
	309	0.062	7.02623E-002	-1.22163E-005	0.00000E+000	7.00000E-002	1.09022E-003	7	...........	-327.66
	310	0.0622	6.01748E-002	-1.26151E-005	0.00000E+000	6.00000E-002	1.16522E-003	7	...........	-327.66
	311	0.0624	5.01873E-002	-1.30101E-005	0.00000E+000	5.00000E-002	1.19022E-003	7	...........	-327.66
	312	0.0626	4.00748E-002	-1.34049E-005	0.00000E+000	4.00000E-002	1.21522E-003	7	...........	-327.66
	313	0.0628	3.01873E-002	-1.37967E-005	0.00000E+000	3.00000E-002	1.11522E-003	7	...........	-327.66
	314	0.063	2.02123E-002	-1.41830E-005	0.00000E+000	2.00000E-002	1.24022E-003	7	...........	-327.66
	315	0.0632	1.02998E-002	-1.45698E-005	0.00000E+000	9.99999E-003	1.19022E-003	7	...........	-327.66
	316	0.0634	1.49812E-004	-1.49519E-005	0.00000E+000	-1.49012E-008	1.09022E-003	7	...........	-327.66
	317	0.0636	-9.81269E-003	-1.53399E-005	0.00000E+000	-1.00000E-002	1.11522E-003	7	...........	-327.66
	318	0.0638	-1.98877E-002	-1.57142E-005	0.00000E+000	-2.00000E-002	1.11522E-003	7	...........	-327.66
	319	0.064	-2.97502E-002	-1.60930E-005	0.00000E+000	-3.00000E-002	1.29022E-003	7	...........	-327.66
	320	0.0642	-3.98127E-002	-1.64736E-005	0.00000E+000	-4.00000E-002	1.04022E-003	7	...........	-327.66
	321	0.0644	-4.97502E-002	-1.68469E-005	0.00000E+000	-5.00000E-002	1.24022E-003	7	...........	-327.66
	322	0.0646	-5.99252E-002	-1.72204E-005	0.00000E+000	-6.00000E-002	1.11522E-003	7	...........	-327.66
	323	0.0648	-6.97377E-002	-1.75907E-005	0.00000E+000	-7.00000E-002	1.16522E-003	7	...........	-327.66
	324	0.065	-7.98127E-002	-1.79593E-005	0.00000E+000	-8.00000E-002	1.11522E-003	7	...........	-327.66
	325	0.0652	-8.97752E-002	-1.83266E-005	0.00000E+000	-9.00000E-002	1.06522E-003	7	...........	-327.66
	326	0.0654	-9.99127E-002	-1.86919E-005	0.00000E+000	-1.00000E-001	1.21522E-003	7	...........	-327.66
	327	0.0656	-1.09763E-001	-1.90547E-005	0.00000E+000	-1.10000E-001	1.19022E-003	7	...........	-327.66
	328	0.0658	-1.19925E-001	-1.94167E-005	0.00000E+000	-1.20000E-001	1.09022E-003	7	...........	-327.66
	329	0.066	-1.29813E-001	-1.97770E-005	0.00000E+000	-1.30000E-001	1.11522E-003	7	...........	-327.66
	330	0.0662	-1.39863E-001	-2.01371E-005	0.00000E+000	-1.40000E-001	1.24022E-003	7	...........	-327.66
	331	0.0664	-1.49663E-001	-2.04961E-005	0.00000E+000	-1.50000E-001	1.19022E-003	7	...........	-327.66
	332	0.0666	-1.59713E-001	-2.08542E-005	0.00000E+000	-1.60000E-001	1.19022E-003	7	...........	-327.66
	333	0.0668	-1.69788E-001	-2.12082E-005	0.00000E+000	-1.70000E-001	1.06522E-003	7	...........	-327.66
	334	0.067	-1.79788E-001	-2.15625E-005	0.00000E+000	-1.80000E-001	1.19022E-003	7	...........	-327.66
	335	0.0672	-1.89663E-001	-2.19138E-005	0.00000E+000	-1.90000E-001	1.11522E-003	7	...........	-327.66
	336	0.0674	-1.99838E-001	-2.22671E-005	0.00000E+000	-2.00000E-001	1.19022E-003	7	...........	-327.66
	337	0.0676	-2.09700E-001	-2.26137E-005	0.00000E+000	-2.10000E-001	1.14022E-003	7	...........	-327.66
	338	0.0678	-2.19775E-001	-2.29642E-005	0.00000E+000	-2.20000E-001	1.16522E-003	7	...........	-327.66
	339	0.068	-2.29700E-001	-2.33100E-005	0.00000E+000	-2.30000E-001	1.21522E-003	7	...........	-327.66
	340	0.0682	-2.39825E-001	-2.36518E-005	0.00000E+000	-2.40000E-001	1.24022E-003	7	...........	-327.66
	341	0.0684	-2.49750E-001	-2.39986E-005	0.00000E+000	-2.50000E-001	1.11522E-003	7	...........	-327.66
	342	0.0686	-2.59825E-001	-2.43379E-005	0.00000E+000	-2.60000E-001	1.09022E-003	7	...........	-327.66
	343	0.0688	-2.69688E-001	-2.46727E-005	0.00000E+000	-2.70000E-001	1.24022E-003	7	...........	-327.66
	344	0.069	-2.79800E-001	-2.50140E-005	0.00000E+000	-2.80000E-001	1.21522E-003	7	...........	-327.66
	345	0.0692	-2.89750E-001	-2.53491E-005	0.00000E+000	-2.90000E-001	1.04022E-003	7	...........	-327.66
	346	0.0694	-2.99775E-001	-2.56808E-005	0.00000E+000	-3.00000E-001	1.19022E-003	7	...........	-327.66
	347	0.0696	-3.09688E-001	-2.60111E-005	0.00000E+000	-3.10000E-001	9.40224E-004	7	...........	-327.66
	348	0.0698	-3.19875E-001	-2.63404E-005	0.00000E+000	-3.20000E-001	1.24022E-003	7	...........	-327.66
	349	0.07	-3.29763E-001	-2.66667E-005	0.00000E+000	-3.30000E-001	1.09022E-003	7	...........	-327.66
	350	0.0702	-3.39850E-001	-2.69938E-005	0.00000E+000	-3.40000E-001	1.24022E-003	7	...........	-327.66
	351	0.0704	-3.49725E-001	-2.73148E-005	0.00000E+000	-3.50000E-001	1.06522E-003	7	...........	-327.66
	352	0.0706	-3.59813E-001	-2.76359E-005	0.00000E+000	-3.60000E-001	1.21522E-003	7	...........	-327.66
	353	0.0708	-3.69775E-001	-2.79507E-005	0.00000E+000	-3.70000E-001	9.90224E-004	7	...........	-327.66
	354	0.071	-3.79800E-001	-2.82634E-005	0.00000E+000	-3.80000E-001	1.16522E-003	7	...........	-327.66
	355	0.0712	-3.89763E-001	-2.85765E-005	0.00000E+000	-3.90000E-001	1.06522E-003	7	...........	-327.66
	356	0.0714	-3.99775E-001	-2.88853E-005	0.00000E+000	-4.00000E-001	1.01522E-003	7	...........	-327.66
	357	0.0716	-4.09713E-001	-2.91883E-005	0.00000E+000	-4.10000E-001	1.06522E-003	7	...........	-327.66
	358	0.0718	-4.19688E-001	-2.94939E-005	0.00000E+000	-4.20000E-001	1.11522E-003	7	...........	-327.66
	359	0.072	-4.29650E-001	-2.97934E-005	0.00000E+000	-4.30000E-001	1.11522E-003	7	...........	-327.66
	360	0.0722	-4.39713E-001	-3.00864E-005	0.00000E+000	-4.40000E-001	1.19022E-003	7	...........	-327.66
	361	0.0724	-4.49713E-001	-3.03800E-005	0.00000E+000	-4.50000E-001	1.24022E-003	7	...........	-327.66
	362	0.0726	-4.59738E-001	-3.06710E-005	0.00000E+000	-4.60000E-001	1.14022E-003	7	...........	-327.66
	363	0.0728	-4.69650E-001	-3.09556E-005	0.00000E+000	-4.70000E-001	1.16522E-003	7	...........	-327.66
	364	0.073	-4.79675E-001	-3.12386E-005	0.00000E+000	-4.80000E-001	1.01522E-003	7	...........	-327.66
	365	0.0732	-4.89738E-001	-3.15166E-005	0.00000E+000	-4.90000E-001	1.06522E-003	7	...........	-327.66
	366	0.0734	-4.99775E-001	-3.17959E-005	0.00000E+000	-5.00000E-001	1.14022E-003	7	...........	-327.66
	367	0.0736	-5.09663E-001	-3.20662E-005	0.00000E+000	-5.10000E-001	1.19022E-003	7	...........	-327.66
	368	0.0738	-5.19750E-001	-3.23365E-005	0.00000E+000	-5.20000E-001	1.06522E-003	7	...........	-327.66
	369	0.074	-5.29763E-001	-3.26003E-005	0.00000E+000	-5.30000E-001	1.21522E-003	7	...........	-327.66
	370	0.0742	-5.39663E-001	-3.28611E-005	0.00000E+000	-5.40000E-001	1.16522E-003	7	...........	-327.66
	371	0.0744	-5.49575E-001	-3.31186E-005	0.00000E+000	-5.50000E-001	1.11522E-003	7	...........	-327.66
	372	0.0746	-5.59738E-001	-3.33684E-005	0.00000E+000	-5.60000E-001	1.11522E-003	7	...........	-327.66
[...]
	702	0.1406	-8.59663E-001	-3.80788E-005	0.00000E+000	-8.60000E-001	1.04022E-003	7	...........	-327.66
	703	0.1408	-8.69613E-001	-3.80418E-005	0.00000E+000	-8.70000E-001	1.24022E-003	7	...........	-327.66
	704	0.141	-8.79563E-001	-3.79760E-005	0.00000E+000	-8.80000E-001	1.01522E-003	7	...........	-327.66
	705	0.1412	-8.89688E-001	-3.78900E-005	0.00000E+000	-8.90000E-001	1.06522E-003	7	...........	-327.66
	706	0.1414	-8.99700E-001	-3.77787E-005	0.00000E+000	-9.00000E-001	1.06522E-003	7	...........	-327.66
	707	0.1416	-8.89725E-001	-3.53122E-005	0.00000E+000	-8.90000E-001	1.06522E-003	7	...........	-327.66
	708	0.1418	-8.79663E-001	-3.27903E-005	0.00000E+000	-8.80000E-001	1.09022E-003	7	...........	-327.66
	709	0.142	-8.69700E-001	-3.05395E-005	0.00000E+000	-8.70000E-001	1.01522E-003	7	...........	-327.66
	710	0.1422	-8.59663E-001	-2.84880E-005	0.00000E+000	-8.60000E-001	1.19022E-003	7	...........	-327.66
	711	0.1424	-8.49738E-001	-2.65862E-005	0.00000E+000	-8.50000E-001	1.14022E-003	7	...........	-327.66
	712	0.1426	-8.39725E-001	-2.48002E-005	0.00000E+000	-8.40000E-001	1.29022E-003	7	...........	-327.66
	713	0.1428	-8.29725E-001	-2.31132E-005	0.00000E+000	-8.30000E-001	1.16522E-003	7	...........	-327.66
	714	0.143	-8.19838E-001	-2.15170E-005	0.00000E+000	-8.20000E-001	1.14022E-003	7	...........	-327.66
	715	0.1432	-8.09675E-001	-1.99916E-005	0.00000E+000	-8.10000E-001	9.65224E-004	7	...........	-327.66
	716	0.1434	-7.99800E-001	-1.85396E-005	0.00000E+000	-8.00000E-001	1.04022E-003	7	...........	-327.66
	717	0.1436	-7.89650E-001	-1.71477E-005	0.00000E+000	-7.90000E-001	1.11522E-003	7	...........	-327.66
	718	0.1438	-7.79650E-001	-1.58150E-005	0.00000E+000	-7.80000E-001	1.29022E-003	7	...........	-327.66
	719	0.144	-7.69750E-001	-1.45423E-005	0.00000E+000	-7.70000E-001	1.14022E-003	7	...........	-327.66
	720	0.1442	-7.59800E-001	-1.33142E-005	0.00000E+000	-7.60000E-001	1.11522E-003	7	...........	-327.66
	721	0.1444	-7.49650E-001	-1.21398E-005	0.00000E+000	-7.50000E-001	1.16522E-003	7	...........	-327.66
	722	0.1446	-7.39788E-001	-1.10121E-005	0.00000E+000	-7.40000E-001	1.11522E-003	7	...........	-327.66
	723	0.1448	-7.29738E-001	-9.92420E-006	0.00000E+000	-7.30000E-001	1.19022E-003	7	...........	-327.66
	724	0.145	-7.19838E-001	-8.88356E-006	0.00000E+000	-7.20000E-001	1.01522E-003	7	...........	-327.66
	725	0.1452	-7.09713E-001	-7.87667E-006	0.00000E+000	-7.10000E-001	1.29022E-003	7	...........	-327.66
	726	0.1454	-6.99800E-001	-6.91104E-006	0.00000E+000	-7.00000E-001	9.90224E-004	7	...........	-327.66
	727	0.1456	-6.89763E-001	-5.98016E-006	0.00000E+000	-6.90000E-001	1.16522E-003	7	...........	-327.66
	728	0.1458	-6.79788E-001	-5.08279E-006	0.00000E+000	-6.80000E-001	1.19022E-003	7	...........	-327.66
	729	0.146	-6.69663E-001	-4.21517E-006	0.00000E+000	-6.70000E-001	1.01522E-003	7	...........	-327.66
	730	0.1462	-6.59813E-001	-3.37506E-006	0.00000E+000	-6.60000E-001	1.19022E-003	7	...........	-327.66
	731	0.1464	-6.49713E-001	-2.56270E-006	0.00000E+000	-6.50000E-001	1.16522E-003	7	...........	-327.66
	732	0.1466	-6.39875E-001	-1.77559E-006	0.00000E+000	-6.40000E-001	1.21522E-003	7	...........	-327.66
	733	0.1468	-6.29725E-001	-1.00798E-006	0.00000E+000	-6.30000E-001	1.19022E-003	7	...........	-327.66
	734	0.147	-6.19850E-001	-2.65132E-007	0.00000E+000	-6.20000E-001	1.21522E-003	7	...........	-327.66
	735	0.1472	-6.09963E-001	4.63217E-007	0.00000E+000	-6.10000E-001	1.21522E-003	7	...........	-327.66
	736	0.1474	-5.99963E-001	1.17806E-006	0.00000E+000	-6.00000E-001	1.29022E-003	7	...........	-327.66
	737	0.1476	-5.89988E-001	1.87566E-006	0.00000E+000	-5.90000E-001	1.14022E-003	7	...........	-327.66
	738	0.1478	-5.79800E-001	2.56375E-006	0.00000E+000	-5.80000E-001	1.16522E-003	7	...........	-327.66
	739	0.148	-5.69888E-001	3.24135E-006	0.00000E+000	-5.70000E-001	1.09022E-003	7	...........	-327.66
	740	0.1482	-5.59963E-001	3.91069E-006	0.00000E+000	-5.60000E-001	1.19022E-003	7	...........	-327.66
	741	0.1484	-5.49825E-001	4.57528E-006	0.00000E+000	-5.50000E-001	1.06522E-003	7	...........	-327.66
	742	0.1486	-5.40013E-001	5.23312E-006	0.00000E+000	-5.40000E-001	1.06522E-003	7	...........	-327.66
	743	0.1488	-5.30000E-001	5.88246E-006	0.00000E+000	-5.30000E-001	1.16522E-003	7	...........	-327.66
	744	0.149	-5.20038E-001	6.53754E-006	0.00000E+000	-5.20000E-001	1.09022E-003	7	...........	-327.66
	745	0.1492	-5.09988E-001	7.19063E-006	0.00000E+000	-5.10000E-001	1.09022E-003	7	...........	-327.66
	746	0.1494	-4.99788E-001	7.84247E-006	0.00000E+000	-5.00000E-001	1.29022E-003	7	...........	-327.66
	747	0.1496	-4.90013E-001	8.50081E-006	0.00000E+000	-4.90000E-001	1.19022E-003	7	...........	-327.66
	748	0.1498	-4.79950E-001	9.15140E-006	0.00000E+000	-4.80000E-001	1.24022E-003	7	...........	-327.66
	749	0.15	-4.69863E-001	9.80949E-006	0.00000E+000	-4.70000E-001	1.26522E-003	7	...........	-327.66
	750	0.1502	-4.60000E-001	1.04703E-005	0.00000E+000	-4.60000E-001	1.09022E-003	7	...........	-327.66
	751	0.1504	-4.49938E-001	1.11349E-005	0.00000E+000	-4.50000E-001	1.04022E-003	7	...........	-327.66
	752	0.1506	-4.39988E-001	1.17968E-005	0.00000E+000	-4.40000E-001	1.19022E-003	7	...........	-327.66
	753	0.1508	-4.29888E-001	1.24659E-005	0.00000E+000	-4.30000E-001	1.21522E-003	7	...........	-327.66
	754	0.151	-4.20025E-001	1.31394E-005	0.00000E+000	-4.20000E-001	1.14022E-003	7	...........	-327.66
	755	0.1512	-4.09963E-001	1.38058E-005	0.00000E+000	-4.10000E-001	1.19022E-003	7	...........	-327.66
	756	0.1514	-3.99950E-001	1.44786E-005	0.00000E+000	-4.00000E-001	1.24022E-003	7	...........	-327.66
	757	0.1516	-3.89925E-001	1.51522E-005	0.00000E+000	-3.90000E-001	1.14022E-003	7	...........	-327.66
	758	0.1518	-3.80000E-001	1.58183E-005	0.00000E+000	-3.80000E-001	1.24022E-003	7	...........	-327.66
	759	0.152	-3.69900E-001	1.64872E-005	0.00000E+000	-3.70000E-001	1.01522E-003	7	...........	-327.66
	760	0.1522	-3.60063E-001	1.71495E-005	0.00000E+000	-3.60000E-001	1.29022E-003	7	...........	-327.66
	761	0.1524	-3.49988E-001	1.78096E-005	0.00000E+000	-3.50000E-001	1.19022E-003	7	...........	-327.66
	762	0.1526	-3.40038E-001	1.84617E-005	0.00000E+000	-3.40000E-001	1.19022E-003	7	...........	-327.66
	763	0.1528	-3.30038E-001	1.91103E-005	0.00000E+000	-3.30000E-001	1.04022E-003	7	...........	-327.66
	764	0.153	-3.20088E-001	1.97378E-005	0.00000E+000	-3.20000E-001	1.11522E-003	7	...........	-327.66
	765	0.1532	-3.09963E-001	2.03624E-005	0.00000E+000	-3.10000E-001	1.14022E-003	7	...........	-327.66
	766	0.1534	-3.00013E-001	2.09775E-005	0.00000E+000	-3.00000E-001	1.11522E-003	7	...........	-327.66
	767	0.1536	-2.89963E-001	2.15713E-005	0.00000E+000	-2.90000E-001	1.11522E-003	7	...........	-327.66
	768	0.1538	-2.80063E-001	2.21584E-005	0.00000E+000	-2.80000E-001	1.04022E-003	7	...........	-327.66
	769	0.154	-2.69913E-001	2.27212E-005	0.00000E+000	-2.70000E-001	1.16522E-003	7	...........	-327.66
	770	0.1542	-2.60000E-001	2.32713E-005	0.00000E+000	-2.60000E-001	1.14022E-003	7	...........	-327.66
	771	0.1544	-2.49950E-001	2.38081E-005	0.00000E+000	-2.50000E-001	1.14022E-003	7	...........	-327.66
	772	0.1546	-2.40000E-001	2.43237E-005	0.00000E+000	-2.40000E-001	1.09022E-003	7	...........	-327.66
	773	0.1548	-2.30038E-001	2.48183E-005	0.00000E+000	-2.30000E-001	1.01522E-003	7	...........	-327.66
	774	0.155	-2.20013E-001	2.52981E-005	0.00000E+000	-2.20000E-001	1.11522E-003	7	...........	-327.66
	775	0.1552	-2.09888E-001	2.57612E-005	0.00000E+000	-2.10000E-001	1.19022E-003	7	...........	-327.66
	776	0.1554	-1.99975E-001	2.62005E-005	0.00000E+000	-2.00000E-001	1.14022E-003	7	...........	-327.66
	777	0.1556	-1.90063E-001	2.66273E-005	0.00000E+000	-1.90000E-001	1.14022E-003	7	...........	-327.66
	778	0.1558	-1.80063E-001	2.70268E-005	0.00000E+000	-1.80000E-001	1.14022E-003	7	...........	-327.66
	779	0.156	-1.70038E-001	2.74156E-005	0.00000E+000	-1.70000E-001	9.65224E-004	7	...........	-327.66
	780	0.1562	-1.60063E-001	2.77842E-005	0.00000E+000	-1.60000E-001	1.21522E-003	7	...........	-327.66
	781	0.1564	-1.50013E-001	2.81325E-005	0.00000E+000	-1.50000E-001	9.90224E-004	7	...........	-327.66
	782	0.1566	-1.39963E-001	2.84643E-005	0.00000E+000	-1.40000E-001	1.19022E-003	7	...........	-327.66
	783	0.1568	-1.30013E-001	2.87851E-005	0.00000E+000	-1.30000E-001	1.14022E-003	7	...........	-327.66
	784	0.157	-1.20025E-001	2.90884E-005	0.00000E+000	-1.20000E-001	1.21522E-003	7	...........	-327.66
	785	0.1572	-1.10100E-001	2.93802E-005	0.00000E+000	-1.10000E-001	1.04022E-003	7	...........	-327.66
	786	0.1574	-1.00025E-001	2.96487E-005	0.00000E+000	-1.00000E-001	1.09022E-003	7	...........	-327.66
	787	0.1576	-9.00377E-002	2.99062E-005	0.00000E+000	-9.00000E-002	1.19022E-003	7	...........	-327.66
	788	0.1578	-8.00627E-002	3.01500E-005	0.00000E+000	-8.00000E-002	1.11522E-003	7	...........	-327.66
	789	0.158	-7.00002E-002	3.03815E-005	0.00000E+000	-7.00000E-002	1.09022E-003	7	...........	-327.66
	790	0.1582	-6.00252E-002	3.05981E-005	0.00000E+000	-6.00000E-002	1.19022E-003	7	...........	-327.66
	791	0.1584	-5.01127E-002	3.08086E-005	0.00000E+000	-5.00000E-002	1.11522E-003	7	...........	-327.66
	792	0.1586	-4.00002E-002	3.10026E-005	0.00000E+000	-4.00000E-002	1.16522E-003	7	...........	-327.66
	793	0.1588	-2.99127E-002	3.11882E-005	0.00000E+000	-3.00000E-002	1.09022E-003	7	...........	-327.66
	794	0.159	-2.00377E-002	3.13597E-005	0.00000E+000	-2.00000E-002	9.65224E-004	7	...........	-327.66
	795	0.1592	-1.01002E-002	3.15249E-005	0.00000E+000	-1.00000E-002	1.19022E-003	7	...........	-327.66
	796	0.1594	-6.26875E-005	3.16752E-005	0.00000E+000	-1.49012E-008	1.09022E-003	7	...........	-327.66
	797	0.1596	1.00373E-002	3.18232E-005	0.00000E+000	9.99999E-003	1.14022E-003	7	...........	-327.66
	798	0.1598	1.99873E-002	3.19603E-005	0.00000E+000	2.00000E-002	1.19022E-003	7	...........	-327.66
	799	0.16	2.99623E-002	3.20855E-005	0.00000E+000	3.00000E-002	1.14022E-003	7	...........	-327.66
	800	0.1602	4.00123E-002	3.22065E-005	0.00000E+000	4.00000E-002	1.06522E-003	7	...........	-327.66
	801	0.1604	4.99373E-002	3.23228E-005	0.00000E+000	5.00000E-002	1.04022E-003	7	...........	-327.66
	802	0.1606	5.99748E-002	3.24278E-005	0.00000E+000	6.00000E-002	1.14022E-003	7	...........	-327.66
	803	0.1608	7.01373E-002	3.25281E-005	0.00000E+000	7.00000E-002	1.19022E-003	7	...........	-327.66
	804	0.161	7.99373E-002	3.26203E-005	0.00000E+000	8.00000E-002	1.14022E-003	7	...........	-327.66
	805	0.1612	9.01748E-002	3.27044E-005	0.00000E+000	9.00000E-002	1.14022E-003	7	...........	-327.66
	806	0.1614	9.99373E-002	3.27836E-005	0.00000E+000	1.00000E-001	1.04022E-003	7	...........	-327.66
	807	0.1616	1.09950E-001	3.28556E-005	0.00000E+000	1.10000E-001	1.19022E-003	7	...........	-327.66
	808	0.1618	1.19937E-001	3.29241E-005	0.00000E+000	1.20000E-001	1.21522E-003	7	...........	-327.66
	809	0.162	1.30075E-001	3.29791E-005	0.00000E+000	1.30000E-001	1.19022E-003	7	...........	-327.66
	810	0.1622	1.40000E-001	3.30317E-005	0.00000E+000	1.40000E-001	1.19022E-003	7	...........	-327.66
	811	0.1624	1.49987E-001	3.30742E-005	0.00000E+000	1.50000E-001	1.19022E-003	7	...........	-327.66
	812	0.1626	1.59937E-001	3.31057E-005	0.00000E+000	1.60000E-001	1.21522E-003	7	...........	-327.66
	813	0.1628	1.70062E-001	3.31332E-005	0.00000E+000	1.70000E-001	1.14022E-003	7	...........	-327.66
	814	0.163	1.79975E-001	3.31562E-005	0.00000E+000	1.80000E-001	1.24022E-003	7	...........	-327.66
	815	0.1632	1.89925E-001	3.31632E-005	0.00000E+000	1.90000E-001	1.11522E-003	7	...........	-327.66
	816	0.1634	1.99937E-001	3.31702E-005	0.00000E+000	2.00000E-001	1.24022E-003	7	...........	-327.66
	817	0.1636	2.09887E-001	3.31697E-005	0.00000E+000	2.10000E-001	1.19022E-003	7	...........	-327.66
	818	0.1638	2.19937E-001	3.31614E-005	0.00000E+000	2.20000E-001	1.29022E-003	7	...........	-327.66
	819	0.164	2.29912E-001	3.31464E-005	0.00000E+000	2.30000E-001	1.19022E-003	7	...........	-327.66
	820	0.1642	2.39912E-001	3.31239E-005	0.00000E+000	2.40000E-001	1.09022E-003	7	...........	-327.66
	821	0.1644	2.49975E-001	3.30999E-005	0.00000E+000	2.50000E-001	1.11522E-003	7	...........	-327.66
	822	0.1646	2.59937E-001	3.30672E-005	0.00000E+000	2.60000E-001	1.04022E-003	7	...........	-327.66
	823	0.1648	2.70087E-001	3.30322E-005	0.00000E+000	2.70000E-001	1.11522E-003	7	...........	-327.66
	824	0.165	2.79887E-001	3.29881E-005	0.00000E+000	2.80000E-001	9.65224E-004	7	...........	-327.66
	825	0.1652	2.89925E-001	3.29406E-005	0.00000E+000	2.90000E-001	1.14022E-003	7	...........	-327.66
	826	0.1654	2.99937E-001	3.28909E-005	0.00000E+000	3.00000E-001	1.19022E-003	7	...........	-327.66
	827	0.1656	3.10000E-001	3.28319E-005	0.00000E+000	3.10000E-001	1.29022E-003	7	...........	-327.66
	828	0.1658	3.19900E-001	3.27776E-005	0.00000E+000	3.20000E-001	1.14022E-003	7	...........	-327.66
	829	0.166	3.29962E-001	3.27129E-005	0.00000E+000	3.30000E-001	1.16522E-003	7	...........	-327.66
	830	0.1662	3.39962E-001	3.26481E-005	0.00000E+000	3.40000E-001	1.14022E-003	7	...........	-327.66
	831	0.1664	3.49987E-001	3.25763E-005	0.00000E+000	3.50000E-001	1.24022E-003	7	...........	-327.66
	832	0.1666	3.59937E-001	3.25028E-005	0.00000E+000	3.60000E-001	1.01522E-003	7	...........	-327.66
	833	0.1668	3.69987E-001	3.24291E-005	0.00000E+000	3.70000E-001	1.21522E-003	7	...........	-327.66
	834	0.167	3.79950E-001	3.23558E-005	0.00000E+000	3.80000E-001	1.06522E-003	7	...........	-327.66
	835	0.1672	3.89937E-001	3.22738E-005	0.00000E+000	3.90000E-001	1.26522E-003	7	...........	-327.66
	836	0.1674	3.99937E-001	3.21935E-005	0.00000E+000	4.00000E-001	1.24022E-003	7	...........	-327.66
	837	0.1676	4.09850E-001	3.21150E-005	0.00000E+000	4.10000E-001	9.40224E-004	7	...........	-327.66
	838	0.1678	4.20000E-001	3.20338E-005	0.00000E+000	4.20000E-001	1.14022E-003	7	...........	-327.66
	839	0.168	4.29950E-001	3.19493E-005	0.00000E+000	4.30000E-001	1.14022E-003	7	...........	-327.66
	840	0.1682	4.39937E-001	3.18655E-005	0.00000E+000	4.40000E-001	1.21522E-003	7	...........	-327.66
	841	0.1684	4.49975E-001	3.17837E-005	0.00000E+000	4.50000E-001	1.09022E-003	7	...........	-327.66
	842	0.1686	4.59950E-001	3.16962E-005	0.00000E+000	4.60000E-001	1.24022E-003	7	...........	-327.66
	843	0.1688	4.69887E-001	3.16175E-005	0.00000E+000	4.70000E-001	9.90224E-004	7	...........	-327.66
	844	0.169	4.79975E-001	3.15394E-005	0.00000E+000	4.80000E-001	1.19022E-003	7	...........	-327.66
	845	0.1692	4.89975E-001	3.14612E-005	0.00000E+000	4.90000E-001	1.09022E-003	7	...........	-327.66
	846	0.1694	4.99950E-001	3.13842E-005	0.00000E+000	5.00000E-001	1.14022E-003	7	...........	-327.66
	847	0.1696	5.09975E-001	3.13097E-005	0.00000E+000	5.10000E-001	1.26522E-003	7	...........	-327.66
	848	0.1698	5.19925E-001	3.12392E-005	0.00000E+000	5.20000E-001	9.65224E-004	7	...........	-327.66
	849	0.17	5.29912E-001	3.11722E-005	0.00000E+000	5.30000E-001	1.11522E-003	7	...........	-327.66
	850	0.1702	5.39962E-001	3.11066E-005	0.00000E+000	5.40000E-001	1.09022E-003	7	...........	-327.66
	851	0.1704	5.49962E-001	3.10436E-005	0.00000E+000	5.50000E-001	1.16522E-003	7	...........	-327.66
	852	0.1706	5.59937E-001	3.09874E-005	0.00000E+000	5.60000E-001	1.09022E-003	7	...........	-327.66
	853	0.1708	5.69925E-001	3.09399E-005	0.00000E+000	5.70000E-001	1.16522E-003	7	...........	-327.66
	854	0.171	5.79925E-001	3.08946E-005	0.00000E+000	5.80000E-001	1.19022E-003	7	...........	-327.66
	855	0.1712	5.89912E-001	3.08511E-005	0.00000E+000	5.90000E-001	1.16522E-003	7	...........	-327.66
	856	0.1714	5.99900E-001	3.08154E-005	0.00000E+000	6.00000E-001	1.19022E-003	7	...........	-327.66
CURVE4	TABLE
	Pt	T	Vf	Im	Vu	Sig	Ach	IERange	Over	Temp
	#	s	V vs. Ref.	A	V	V	V	#	bits	deg C
	857	0.1716	5.89987E-001	2.80747E-005	0.00000E+000	5.90000E-001	1.21522E-003	7	...........	-327.66
	858	0.1718	5.79950E-001	2.54986E-005	0.00000E+000	5.80000E-001	1.19022E-003	7	...........	-327.66
	859	0.172	5.70062E-001	2.33431E-005	0.00000E+000	5.70000E-001	1.19022E-003	7	...........	-327.66
	860	0.1722	5.59962E-001	2.14681E-005	0.00000E+000	5.60000E-001	1.24022E-003	7	...........	-327.66
	861	0.1724	5.50012E-001	1.97954E-005	0.00000E+000	5.50000E-001	1.14022E-003	7	...........	-327.66
	862	0.1726	5.39925E-001	1.82711E-005	0.00000E+000	5.40000E-001	1.16522E-003	7	...........	-327.66
	863	0.1728	5.30037E-001	1.68765E-005	0.00000E+000	5.30000E-001	1.21522E-003	7	...........	-327.66
	864	0.173	5.20012E-001	1.55758E-005	0.00000E+000	5.20000E-001	1.21522E-003	7	...........	-327.66
	865	0.1732	5.10112E-001	1.43616E-005	0.00000E+000	5.10000E-001	1.09022E-003	7	...........	-327.66
	866	0.1734	4.99975E-001	1.32162E-005	0.00000E+000	5.00000E-001	1.24022E-003	7	...........	-327.66
	867	0.1736	4.90012E-001	1.21293E-005	0.00000E+000	4.90000E-001	1.29022E-003	7	...........	-327.66
	868	0.1738	4.79937E-001	1.10992E-005	0.00000E+000	4.80000E-001	1.29022E-003	7	...........	-327.66
	869	0.174	4.69937E-001	1.01203E-005	0.00000E+000	4.70000E-001	1.11522E-003	7	...........	-327.66
	870	0.1742	4.59950E-001	9.18166E-006	0.00000E+000	4.60000E-001	1.19022E-003	7	...........	-327.66
	871	0.1744	4.50062E-001	8.27853E-006	0.00000E+000	4.50000E-001	1.29022E-003	7	...........	-327.66
	872	0.1746	4.39962E-001	7.40966E-006	0.00000E+000	4.40000E-001	9.90224E-004	7	...........	-327.66
	873	0.1748	4.29937E-001	6.57880E-006	0.00000E+000	4.30000E-001	1.16522E-003	7	...........	-327.66
	874	0.175	4.20075E-001	5.77219E-006	0.00000E+000	4.20000E-001	1.11522E-003	7	...........	-327.66
	875	0.1752	4.10137E-001	4.99583E-006	0.00000E+000	4.10000E-001	1.16522E-003	7	...........	-327.66
	876	0.1754	3.99987E-001	4.23873E-006	0.00000E+000	4.00000E-001	1.11522E-003	7	...........	-327.66
	877	0.1756	3.90075E-001	3.50288E-006	0.00000E+000	3.90000E-001	1.29022E-003	7	...........	-327.66
	878	0.1758	3.79962E-001	2.79178E-006	0.00000E+000	3.80000E-001	1.24022E-003	7	...........	-327.66
	879	0.176	3.69987E-001	2.10519E-006	0.00000E+000	3.70000E-001	1.19022E-003	7	...........	-327.66
	880	0.1762	3.59987E-001	1.43260E-006	0.00000E+000	3.60000E-001	1.16522E-003	7	...........	-327.66
	881	0.1764	3.50062E-001	7.71509E-007	0.00000E+000	3.50000E-001	1.09022E-003	7	...........	-327.66
	882	0.1766	3.40037E-001	1.37923E-007	0.00000E+000	3.40000E-001	1.11522E-003	7	...........	-327.66
	883	0.1768	3.30237E-001	-4.89663E-007	0.00000E+000	3.30000E-001	1.01522E-003	7	...........	-327.66
	884	0.177	3.19987E-001	-1.09525E-006	0.00000E+000	3.20000E-001	1.14022E-003	7	...........	-327.66
	885	0.1772	3.10037E-001	-1.69358E-006	0.00000E+000	3.10000E-001	1.19022E-003	7	...........	-327.66
	886	0.1774	3.00000E-001	-2.27791E-006	0.00000E+000	3.00000E-001	1.16522E-003	7	...........	-327.66
	887	0.1776	2.90075E-001	-2.84723E-006	0.00000E+000	2.90000E-001	1.14022E-003	7	...........	-327.66
	888	0.1778	2.80012E-001	-3.40681E-006	0.00000E+000	2.80000E-001	1.01522E-003	7	...........	-327.66
	889	0.178	2.70225E-001	-3.95439E-006	0.00000E+000	2.70000E-001	1.16522E-003	7	...........	-327.66
	890	0.1782	2.60137E-001	-4.49771E-006	0.00000E+000	2.60000E-001	1.11522E-003	7	...........	-327.66
	891	0.1784	2.50237E-001	-5.02228E-006	0.00000E+000	2.50000E-001	9.40224E-004	7	...........	-327.66
	892	0.1786	2.40075E-001	-5.54035E-006	0.00000E+000	2.40000E-001	1.11522E-003	7	...........	-327.66
	893	0.1788	2.30137E-001	-6.05042E-006	0.00000E+000	2.30000E-001	1.11522E-003	7	...........	-327.66
	894	0.179	2.20012E-001	-6.55374E-006	0.00000E+000	2.20000E-001	1.29022E-003	7	...........	-327.66
	895	0.1792	2.10187E-001	-7.05156E-006	0.00000E+000	2.10000E-001	1.14022E-003	7	...........	-327.66
	896	0.1794	2.00025E-001	-7.53837E-006	0.00000E+000	2.00000E-001	9.90224E-004	7	...........	-327.66
	897	0.1796	1.90100E-001	-8.01994E-006	0.00000E+000	1.90000E-001	1.14022E-003	7	...........	-327.66
	898	0.1798	1.80162E-001	-8.49775E-006	0.00000E+000	1.80000E-001	1.14022E-003	7	...........	-327.66
	899	0.18	1.70212E-001	-8.96482E-006	0.00000E+000	1.70000E-001	9.65224E-004	7	...........	-327.66
	900	0.1802	1.60100E-001	-9.42463E-006	0.00000E+000	1.60000E-001	1.01522E-003	7	...........	-327.66