File: Test_Data_Files/20250509_ZC_IF0011_IIA42_E07_PBSair_PEDOT_CV5000.DTA
EXPLAIN
TAG	CV
TITLE	LABEL	CV5000	Test Identifier
DATE	LABEL	5/9/2025	Date
TIME	LABEL	15:27:17	Time
NOTES	NOTES	1	Notes...

PSTAT	PSTAT	REF600P-43058	Potentiostat
VINIT	POTEN	0.00000E+000	T	Initial E (V)
VLIMIT1	POTEN	-9.00000E-001	F	Scan Limit 1 (V)
VLIMIT2	POTEN	6.00000E-001	F	Scan Limit 2 (V)
VFINAL	POTEN	0.00000E+000	T	Final E (V)
SCANRATE	QUANT	4.99999E+003	Scan Rate (mV/s)
STEPSIZE	QUANT	1.00000E+001	Step Size (mV)
CYCLES	IQUANT	3	Cycles (#)
IMODE	SELECTOR	1	I/E Range Mode
IRANGE	QUANT	1.00000E-002	Max Current (mA)
AREA	QUANT	1.00000E+000	Sample Area (cm^2)
EQDELAY	QUANT	5.00000E+000	Equil. Time (s)
IRCOMP	SELECTOR	0	IRComp
PFCOR	QUANT	5.00000E+001	PF Corr. (ohm)
SAMPLINGMODE	SELECTOR	2	Sampling Mode
EOC	QUANT	0.1338838	Open Circuit (V)
ELECTRODETYPE	SELECTOR	0	Electrode Type
STRIPPING	TOGGLE	F	Used for Stripping
SEQUENCER	TOGGLE	TRUE	Run as Sequence
PSTATMODEL	IQUANT	7	Pstat Model
PSTATSECTION	LABEL	REF600P-43058	Pstat Section
PSTATSERIALNO	LABEL	43058	Pstat Serial Number
CTRLMODE	IQUANT	1	Control Mode
ELECTROMETER	IQUANT	0	RE=0 or CS=1
IESTAB	IQUANT	2	I/E Stability
CASPEED	IQUANT	4	Control Amp Speed
CONVENTION	IQUANT	1	Current Convention
ICHRANGE	IQUANT	2	Ich Range
ICHRANGEMODE	TOGGLE	F	Ich Auto Range
ICHOFFSETENABLE	TOGGLE	F	Ich Offset Enable
ICHOFFSET	QUANT	0	Ich Offset (V)
ICHFILTER	IQUANT	2	Ich Filter
VCHRANGE	IQUANT	2	Vch Range
VCHRANGEMODE	TOGGLE	F	Vch Auto Range
VCHOFFSETENABLE	TOGGLE	F	Vch Offset Enable
VCHOFFSET	QUANT	0	Vch Offset (V)
VCHFILTER	IQUANT	2	Vch Filter
ACHRANGE	IQUANT	2	Ach Range
ACHOFFSETENABLE	TOGGLE	F	Ach Offset Enable
ACHOFFSET	QUANT	0	Ach Offset (V)
ACHFILTER	IQUANT	1	Ach Filter
IERANGELOWERLIMIT	IQUANT	1	I/E Range Lower Limit
IERANGEMODE	TOGGLE	F	I/E AutoRange
IERANGE	IQUANT	7	I/E Range
POSFEEDENABLE	TOGGLE	F	Positive Feedback IR Comp
POSFEEDRESISTANCE	QUANT	0	Positive Feedback Resistance (ohm)
ACHSELECT	IQUANT	4	Ach Select
SENSECABLEID	IQUANT	7	Sense Cable ID
PWRCABLEID	IQUANT	7	Power Cable ID
DCCALDATE	LABEL	5/8/2025	DC Calibration Date
ACCALDATE	LABEL	5/8/2025	AC Calibration Date
THERMOSELECT	IQUANT	1	Thermo Select
FRAMEWORKVERSION	LABEL	7.10.4	Framework Version
INSTRUMENTVERSION	LABEL	5.01	Instrument Version
COMMVERSION	LABEL	5.10	Communications Version
CPUPLDVERSION	LABEL	6.00	CPU PLD Version
CTRLPLDVERSION	LABEL	3.21	CTRL PLD Version
PSTATPLDVERSION	LABEL	0.00	PSTAT PLD Version
CURVE1	TABLE
	Pt	T	Vf	Im	Vu	Sig	Ach	IERange	Over	Temp
	#	s	V vs. Ref.	A	V	V	V	#	bits	deg C
	0	0.002	1.33926E-001	8.76884E-009	0.00000E+000	1.33900E-001	1.41609E-003	7	...........	-327.66
	1	0.004	1.24760E-001	-8.37157E-007	0.00000E+000	1.23900E-001	1.44022E-003	7	...........	-327.66
	2	0.006	1.14739E-001	-1.32317E-006	0.00000E+000	1.13900E-001	1.42988E-003	7	...........	-327.66
	3	0.008	1.04706E-001	-1.67410E-006	0.00000E+000	1.03900E-001	1.38505E-003	7	...........	-327.66
	4	0.01	9.47187E-002	-1.95446E-006	0.00000E+000	9.39000E-002	1.41953E-003	7	...........	-327.66
	5	0.012	8.47333E-002	-2.18686E-006	0.00000E+000	8.39000E-002	1.39022E-003	7	...........	-327.66
	6	0.014	7.46971E-002	-2.38333E-006	0.00000E+000	7.39000E-002	1.40402E-003	7	...........	-327.66
	7	0.016	6.47506E-002	-2.55353E-006	0.00000E+000	6.39000E-002	1.39712E-003	7	...........	-327.66
	8	0.018	5.47204E-002	-2.69984E-006	0.00000E+000	5.39000E-002	1.38333E-003	7	...........	-327.66
	9	0.02	4.47661E-002	-2.82903E-006	0.00000E+000	4.39000E-002	1.38160E-003	7	...........	-327.66
	10	0.022	3.47118E-002	-2.94258E-006	0.00000E+000	3.39000E-002	1.39712E-003	7	...........	-327.66
	11	0.024	2.47264E-002	-3.04253E-006	0.00000E+000	2.39000E-002	1.45402E-003	7	...........	-327.66
	12	0.026	1.47894E-002	-3.13285E-006	0.00000E+000	1.39000E-002	1.39367E-003	7	...........	-327.66
	13	0.028	4.75403E-003	-3.21465E-006	0.00000E+000	3.89999E-003	1.40057E-003	7	...........	-327.66
	14	0.03	-5.29769E-003	-3.28897E-006	0.00000E+000	-6.10001E-003	1.34712E-003	7	...........	-327.66
	15	0.032	-1.52477E-002	-3.35624E-006	0.00000E+000	-1.61000E-002	1.45919E-003	7	...........	-327.66
	16	0.034	-2.52942E-002	-3.42141E-006	0.00000E+000	-2.61000E-002	1.38678E-003	7	...........	-327.66
	17	0.036	-3.52391E-002	-3.47941E-006	0.00000E+000	-3.61000E-002	1.40402E-003	7	...........	-327.66
	18	0.038	-4.52848E-002	-3.53616E-006	0.00000E+000	-4.61000E-002	1.36436E-003	7	...........	-327.66
	19	0.04	-5.52934E-002	-3.58801E-006	0.00000E+000	-5.61000E-002	1.42471E-003	7	...........	-327.66
	20	0.042	-6.52649E-002	-3.63892E-006	0.00000E+000	-6.61000E-002	1.45229E-003	7	...........	-327.66
	21	0.044	-7.52572E-002	-3.68679E-006	0.00000E+000	-7.61000E-002	1.43160E-003	7	...........	-327.66
	22	0.046	-8.52822E-002	-3.73295E-006	0.00000E+000	-8.61000E-002	1.40229E-003	7	...........	-327.66
	23	0.048	-9.52899E-002	-3.77925E-006	0.00000E+000	-9.61000E-002	1.44540E-003	7	...........	-327.66
	24	0.05	-1.05299E-001	-3.82341E-006	0.00000E+000	-1.06100E-001	1.42126E-003	7	...........	-327.66
	25	0.052	-1.15260E-001	-3.86693E-006	0.00000E+000	-1.16100E-001	1.40574E-003	7	...........	-327.66
	26	0.054	-1.25315E-001	-3.90952E-006	0.00000E+000	-1.26100E-001	1.37815E-003	7	...........	-327.66
	27	0.056	-1.35299E-001	-3.95131E-006	0.00000E+000	-1.36100E-001	1.38678E-003	7	...........	-327.66
	28	0.058	-1.45279E-001	-3.99290E-006	0.00000E+000	-1.46100E-001	1.42815E-003	7	...........	-327.66
	29	0.06	-1.55263E-001	-4.03289E-006	0.00000E+000	-1.56100E-001	1.39884E-003	7	...........	-327.66
	30	0.062	-1.65261E-001	-4.07282E-006	0.00000E+000	-1.66100E-001	1.38333E-003	7	...........	-327.66
	31	0.064	-1.75312E-001	-4.11365E-006	0.00000E+000	-1.76100E-001	1.40919E-003	7	...........	-327.66
	32	0.066	-1.85299E-001	-4.15352E-006	0.00000E+000	-1.86100E-001	1.35919E-003	7	...........	-327.66
	33	0.068	-1.95248E-001	-4.19108E-006	0.00000E+000	-1.96100E-001	1.39712E-003	7	...........	-327.66
	34	0.07	-2.05272E-001	-4.23115E-006	0.00000E+000	-2.06100E-001	1.45229E-003	7	...........	-327.66
	35	0.072	-2.15207E-001	-4.26907E-006	0.00000E+000	-2.16100E-001	1.42988E-003	7	...........	-327.66
	36	0.074	-2.25249E-001	-4.30735E-006	0.00000E+000	-2.26100E-001	1.42815E-003	7	...........	-327.66
	37	0.076	-2.35239E-001	-4.34386E-006	0.00000E+000	-2.36100E-001	1.45747E-003	7	...........	-327.66
	38	0.078	-2.45241E-001	-4.37952E-006	0.00000E+000	-2.46100E-001	1.37815E-003	7	...........	-327.66
	39	0.08	-2.55243E-001	-4.41633E-006	0.00000E+000	-2.56100E-001	1.42643E-003	7	...........	-327.66
	40	0.082	-2.65241E-001	-4.45201E-006	0.00000E+000	-2.66100E-001	1.44022E-003	7	...........	-327.66
	41	0.084	-2.75218E-001	-4.48612E-006	0.00000E+000	-2.76100E-001	1.45747E-003	7	...........	-327.66
	42	0.086	-2.85262E-001	-4.51890E-006	0.00000E+000	-2.86100E-001	1.44884E-003	7	...........	-327.66
	43	0.088	-2.95206E-001	-4.55104E-006	0.00000E+000	-2.96100E-001	1.35574E-003	7	...........	-327.66
	44	0.09	-3.05266E-001	-4.58296E-006	0.00000E+000	-3.06100E-001	1.43678E-003	7	...........	-327.66
	45	0.092	-3.15220E-001	-4.61243E-006	0.00000E+000	-3.16100E-001	1.45402E-003	7	...........	-327.66
	46	0.094	-3.25246E-001	-4.64116E-006	0.00000E+000	-3.26100E-001	1.43850E-003	7	...........	-327.66
	47	0.096	-3.35261E-001	-4.66840E-006	0.00000E+000	-3.36100E-001	1.42643E-003	7	...........	-327.66
	48	0.098	-3.45230E-001	-4.69435E-006	0.00000E+000	-3.46100E-001	1.47126E-003	7	...........	-327.66
	49	0.1	-3.55222E-001	-4.71744E-006	0.00000E+000	-3.56100E-001	1.40574E-003	7	...........	-327.66
	50	0.102	-3.65257E-001	-4.74286E-006	0.00000E+000	-3.66100E-001	1.43160E-003	7	...........	-327.66
	51	0.104	-3.75239E-001	-4.76228E-006	0.00000E+000	-3.76100E-001	1.39022E-003	7	...........	-327.66
	52	0.106	-3.85284E-001	-4.78354E-006	0.00000E+000	-3.86100E-001	1.37471E-003	7	...........	-327.66
	53	0.108	-3.95232E-001	-4.80084E-006	0.00000E+000	-3.96100E-001	1.39712E-003	7	...........	-327.66
	54	0.11	-4.05242E-001	-4.81611E-006	0.00000E+000	-4.06100E-001	1.42298E-003	7	...........	-327.66
	55	0.112	-4.15242E-001	-4.83210E-006	0.00000E+000	-4.16100E-001	1.38850E-003	7	...........	-327.66
	56	0.114	-4.25211E-001	-4.84400E-006	0.00000E+000	-4.26100E-001	1.43160E-003	7	...........	-327.66
	57	0.116	-4.35207E-001	-4.85346E-006	0.00000E+000	-4.36100E-001	1.43160E-003	7	...........	-327.66
	58	0.118	-4.45206E-001	-4.86362E-006	0.00000E+000	-4.46100E-001	1.41436E-003	7	...........	-327.66
	59	0.12	-4.55236E-001	-4.87136E-006	0.00000E+000	-4.56100E-001	1.38505E-003	7	...........	-327.66
	60	0.122	-4.65233E-001	-4.87526E-006	0.00000E+000	-4.66100E-001	1.40229E-003	7	...........	-327.66
	61	0.124	-4.75161E-001	-4.87864E-006	0.00000E+000	-4.76100E-001	1.45229E-003	7	...........	-327.66
	62	0.126	-4.85261E-001	-4.87943E-006	0.00000E+000	-4.86100E-001	1.40574E-003	7	...........	-327.66
	63	0.128	-4.95186E-001	-4.87826E-006	0.00000E+000	-4.96100E-001	1.38678E-003	7	...........	-327.66
	64	0.13	-5.05224E-001	-4.87553E-006	0.00000E+000	-5.06100E-001	1.37643E-003	7	...........	-327.66
	65	0.132	-5.15220E-001	-4.86822E-006	0.00000E+000	-5.16100E-001	1.43160E-003	7	...........	-327.66
	66	0.134	-5.25215E-001	-4.86095E-006	0.00000E+000	-5.26100E-001	1.47988E-003	7	...........	-327.66
	67	0.136	-5.35263E-001	-4.84770E-006	0.00000E+000	-5.36100E-001	1.43850E-003	7	...........	-327.66
	68	0.138	-5.45241E-001	-4.83172E-006	0.00000E+000	-5.46100E-001	1.39540E-003	7	...........	-327.66
	69	0.14	-5.55193E-001	-4.80966E-006	0.00000E+000	-5.56100E-001	1.36609E-003	7	...........	-327.66
	70	0.142	-5.65210E-001	-4.78137E-006	0.00000E+000	-5.66100E-001	1.41609E-003	7	...........	-327.66
	71	0.144	-5.75217E-001	-4.75000E-006	0.00000E+000	-5.76100E-001	1.44884E-003	7	...........	-327.66
	72	0.146	-5.85226E-001	-4.70991E-006	0.00000E+000	-5.86100E-001	1.40919E-003	7	...........	-327.66
	73	0.148	-5.95216E-001	-4.66094E-006	0.00000E+000	-5.96100E-001	1.42815E-003	7	...........	-327.66
	74	0.15	-6.05209E-001	-4.60248E-006	0.00000E+000	-6.06100E-001	1.46609E-003	7	...........	-327.66
	75	0.152	-6.15211E-001	-4.53430E-006	0.00000E+000	-6.16100E-001	1.38678E-003	7	...........	-327.66
	76	0.154	-6.25121E-001	-4.45308E-006	0.00000E+000	-6.26100E-001	1.39195E-003	7	...........	-327.66
	77	0.156	-6.35192E-001	-4.36141E-006	0.00000E+000	-6.36100E-001	1.41781E-003	7	...........	-327.66
	78	0.158	-6.45158E-001	-4.25485E-006	0.00000E+000	-6.46100E-001	1.40574E-003	7	...........	-327.66
	79	0.16	-6.55186E-001	-4.13519E-006	0.00000E+000	-6.56100E-001	1.45057E-003	7	...........	-327.66
	80	0.162	-6.65214E-001	-4.00514E-006	0.00000E+000	-6.66100E-001	1.39540E-003	7	...........	-327.66
	81	0.164	-6.75174E-001	-3.86097E-006	0.00000E+000	-6.76100E-001	1.41953E-003	7	...........	-327.66
	82	0.166	-6.85206E-001	-3.70693E-006	0.00000E+000	-6.86100E-001	1.40574E-003	7	...........	-327.66
	83	0.168	-6.95222E-001	-3.54204E-006	0.00000E+000	-6.96100E-001	1.42298E-003	7	...........	-327.66
	84	0.17	-7.05156E-001	-3.37124E-006	0.00000E+000	-7.06100E-001	1.42298E-003	7	...........	-327.66
	85	0.172	-7.15201E-001	-3.19410E-006	0.00000E+000	-7.16100E-001	1.40402E-003	7	...........	-327.66
	86	0.174	-7.25228E-001	-3.01123E-006	0.00000E+000	-7.26100E-001	1.42815E-003	7	...........	-327.66
	87	0.176	-7.35198E-001	-2.82982E-006	0.00000E+000	-7.36100E-001	1.42815E-003	7	...........	-327.66
	88	0.178	-7.45227E-001	-2.64933E-006	0.00000E+000	-7.46100E-001	1.40402E-003	7	...........	-327.66
	89	0.18	-7.55149E-001	-2.47050E-006	0.00000E+000	-7.56100E-001	1.43505E-003	7	...........	-327.66
	90	0.182	-7.65216E-001	-2.29863E-006	0.00000E+000	-7.66100E-001	1.45057E-003	7	...........	-327.66
	91	0.184	-7.75249E-001	-2.13288E-006	0.00000E+000	-7.76100E-001	1.38160E-003	7	...........	-327.66
	92	0.186	-7.85199E-001	-1.97948E-006	0.00000E+000	-7.86100E-001	1.39540E-003	7	...........	-327.66
	93	0.188	-7.95207E-001	-1.83891E-006	0.00000E+000	-7.96100E-001	1.45057E-003	7	...........	-327.66
	94	0.19	-8.05186E-001	-1.70648E-006	0.00000E+000	-8.06100E-001	1.42643E-003	7	...........	-327.66
	95	0.192	-8.15222E-001	-1.58412E-006	0.00000E+000	-8.16100E-001	1.46609E-003	7	...........	-327.66
	96	0.194	-8.25227E-001	-1.47195E-006	0.00000E+000	-8.26100E-001	1.46781E-003	7	...........	-327.66
	97	0.196	-8.35165E-001	-1.37416E-006	0.00000E+000	-8.36100E-001	1.43505E-003	7	...........	-327.66
	98	0.198	-8.45242E-001	-1.28882E-006	0.00000E+000	-8.46100E-001	1.41953E-003	7	...........	-327.66
	99	0.2	-8.55223E-001	-1.21026E-006	0.00000E+000	-8.56100E-001	1.49022E-003	7	...........	-327.66
	100	0.202	-8.65227E-001	-1.14113E-006	0.00000E+000	-8.66100E-001	1.48160E-003	7	...........	-327.66
	101	0.204	-8.75205E-001	-1.07834E-006	0.00000E+000	-8.76100E-001	1.48505E-003	7	...........	-327.66
	102	0.206	-8.85199E-001	-1.02418E-006	0.00000E+000	-8.86100E-001	1.38850E-003	7	...........	-327.66
	103	0.208	-8.95230E-001	-9.74555E-007	0.00000E+000	-8.96100E-001	1.37815E-003	7	...........	-327.66
	104	0.21	-8.86735E-001	-8.57522E-007	0.00000E+000	-8.86100E-001	1.44712E-003	7	...........	-327.66
	105	0.212	-8.76802E-001	-7.75476E-007	0.00000E+000	-8.76100E-001	1.36264E-003	7	...........	-327.66
	106	0.214	-8.66797E-001	-7.13054E-007	0.00000E+000	-8.66100E-001	1.40402E-003	7	...........	-327.66
	107	0.216	-8.56775E-001	-6.60943E-007	0.00000E+000	-8.56100E-001	1.43850E-003	7	...........	-327.66
	108	0.218	-8.46802E-001	-6.16144E-007	0.00000E+000	-8.46100E-001	1.45919E-003	7	...........	-327.66
	109	0.22	-8.36739E-001	-5.75449E-007	0.00000E+000	-8.36100E-001	1.36264E-003	7	...........	-327.66
	110	0.222	-8.26796E-001	-5.35409E-007	0.00000E+000	-8.26100E-001	1.36953E-003	7	...........	-327.66
	111	0.224	-8.16802E-001	-4.98007E-007	0.00000E+000	-8.16100E-001	1.42815E-003	7	...........	-327.66
	112	0.226	-8.06789E-001	-4.61881E-007	0.00000E+000	-8.06100E-001	1.43160E-003	7	...........	-327.66
	113	0.228	-7.96791E-001	-4.23997E-007	0.00000E+000	-7.96100E-001	1.38678E-003	7	...........	-327.66
	114	0.23	-7.86767E-001	-3.85250E-007	0.00000E+000	-7.86100E-001	1.43333E-003	7	...........	-327.66
	115	0.232	-7.76767E-001	-3.45935E-007	0.00000E+000	-7.76100E-001	1.42471E-003	7	...........	-327.66
	116	0.234	-7.66762E-001	-3.05274E-007	0.00000E+000	-7.66100E-001	1.42988E-003	7	...........	-327.66
	117	0.236	-7.56739E-001	-2.60164E-007	0.00000E+000	-7.56100E-001	1.40919E-003	7	...........	-327.66
	118	0.238	-7.46812E-001	-2.11261E-007	0.00000E+000	-7.46100E-001	1.40229E-003	7	...........	-327.66
	119	0.24	-7.36832E-001	-1.59668E-007	0.00000E+000	-7.36100E-001	1.36953E-003	7	...........	-327.66
	120	0.242	-7.26769E-001	-1.02436E-007	0.00000E+000	-7.26100E-001	1.44712E-003	7	...........	-327.66
	121	0.244	-7.16792E-001	-4.05310E-008	0.00000E+000	-7.16100E-001	1.45229E-003	7	...........	-327.66
	122	0.246	-7.06797E-001	2.89785E-008	0.00000E+000	-7.06100E-001	1.37298E-003	7	...........	-327.66
	123	0.248	-6.96785E-001	1.03747E-007	0.00000E+000	-6.96100E-001	1.41436E-003	7	...........	-327.66
	124	0.25	-6.86795E-001	1.88397E-007	0.00000E+000	-6.86100E-001	1.47815E-003	7	...........	-327.66
	125	0.252	-6.76807E-001	2.80961E-007	0.00000E+000	-6.76100E-001	1.41436E-003	7	...........	-327.66
	126	0.254	-6.66789E-001	3.84027E-007	0.00000E+000	-6.66100E-001	1.40402E-003	7	...........	-327.66
	127	0.256	-6.56816E-001	5.00388E-007	0.00000E+000	-6.56100E-001	1.45574E-003	7	...........	-327.66
	128	0.258	-6.46799E-001	6.28802E-007	0.00000E+000	-6.46100E-001	1.44884E-003	7	...........	-327.66
	129	0.26	-6.36810E-001	7.70114E-007	0.00000E+000	-6.36100E-001	1.38678E-003	7	...........	-327.66
	130	0.262	-6.26773E-001	9.27773E-007	0.00000E+000	-6.26100E-001	1.41953E-003	7	...........	-327.66
	131	0.264	-6.16793E-001	1.10406E-006	0.00000E+000	-6.16100E-001	1.40747E-003	7	...........	-327.66
	132	0.266	-6.06825E-001	1.30082E-006	0.00000E+000	-6.06100E-001	1.46781E-003	7	...........	-327.66
	133	0.268	-5.96802E-001	1.51728E-006	0.00000E+000	-5.96100E-001	1.47643E-003	7	...........	-327.66
	134	0.27	-5.86827E-001	1.75609E-006	0.00000E+000	-5.86100E-001	1.42815E-003	7	...........	-327.66
	135	0.272	-5.76813E-001	2.01884E-006	0.00000E+000	-5.76100E-001	1.45919E-003	7	...........	-327.66
	136	0.274	-5.66808E-001	2.30563E-006	0.00000E+000	-5.66100E-001	1.45057E-003	7	...........	-327.66
	137	0.276	-5.56837E-001	2.61743E-006	0.00000E+000	-5.56100E-001	1.42298E-003	7	...........	-327.66
	138	0.278	-5.46834E-001	2.95215E-006	0.00000E+000	-5.46100E-001	1.44195E-003	7	...........	-327.66
	139	0.28	-5.36902E-001	3.30567E-006	0.00000E+000	-5.36100E-001	1.41609E-003	7	...........	-327.66
	140	0.282	-5.26810E-001	3.67396E-006	0.00000E+000	-5.26100E-001	1.39367E-003	7	...........	-327.66
	141	0.284	-5.16849E-001	4.04834E-006	0.00000E+000	-5.16100E-001	1.40747E-003	7	...........	-327.66
	142	0.286	-5.06865E-001	4.41585E-006	0.00000E+000	-5.06100E-001	1.44022E-003	7	...........	-327.66
	143	0.288	-4.96836E-001	4.75607E-006	0.00000E+000	-4.96100E-001	1.38678E-003	7	...........	-327.66
	144	0.29	-4.86861E-001	5.05415E-006	0.00000E+000	-4.86100E-001	1.43160E-003	7	...........	-327.66
	145	0.292	-4.76803E-001	5.29206E-006	0.00000E+000	-4.76100E-001	1.40919E-003	7	...........	-327.66
	146	0.294	-4.66825E-001	5.45806E-006	0.00000E+000	-4.66100E-001	1.42643E-003	7	...........	-327.66
	147	0.296	-4.56880E-001	5.54844E-006	0.00000E+000	-4.56100E-001	1.40747E-003	7	...........	-327.66
	148	0.298	-4.46838E-001	5.56904E-006	0.00000E+000	-4.46100E-001	1.39884E-003	7	...........	-327.66
	149	0.3	-4.36839E-001	5.52938E-006	0.00000E+000	-4.36100E-001	1.42298E-003	7	...........	-327.66
	150	0.302	-4.26846E-001	5.44613E-006	0.00000E+000	-4.26100E-001	1.45229E-003	7	...........	-327.66
	151	0.304	-4.16856E-001	5.33672E-006	0.00000E+000	-4.16100E-001	1.45747E-003	7	...........	-327.66
	152	0.306	-4.06871E-001	5.21512E-006	0.00000E+000	-4.06100E-001	1.45229E-003	7	...........	-327.66
	153	0.308	-3.96843E-001	5.09138E-006	0.00000E+000	-3.96100E-001	1.39195E-003	7	...........	-327.66
	154	0.31	-3.86866E-001	4.97246E-006	0.00000E+000	-3.86100E-001	1.42298E-003	7	...........	-327.66
	155	0.312	-3.76883E-001	4.86552E-006	0.00000E+000	-3.76100E-001	1.35747E-003	7	...........	-327.66
	156	0.314	-3.66866E-001	4.76912E-006	0.00000E+000	-3.66100E-001	1.38850E-003	7	...........	-327.66
	157	0.316	-3.56865E-001	4.68780E-006	0.00000E+000	-3.56100E-001	1.41436E-003	7	...........	-327.66
	158	0.318	-3.46860E-001	4.61900E-006	0.00000E+000	-3.46100E-001	1.40402E-003	7	...........	-327.66
	159	0.32	-3.36884E-001	4.56215E-006	0.00000E+000	-3.36100E-001	1.44712E-003	7	...........	-327.66
	160	0.322	-3.26887E-001	4.51318E-006	0.00000E+000	-3.26100E-001	1.41781E-003	7	...........	-327.66
	161	0.324	-3.16845E-001	4.47484E-006	0.00000E+000	-3.16100E-001	1.41264E-003	7	...........	-327.66
	162	0.326	-3.06893E-001	4.44368E-006	0.00000E+000	-3.06100E-001	1.44712E-003	7	...........	-327.66
	163	0.328	-2.96862E-001	4.41775E-006	0.00000E+000	-2.96100E-001	1.40919E-003	7	...........	-327.66
	164	0.33	-2.86842E-001	4.39568E-006	0.00000E+000	-2.86100E-001	1.40574E-003	7	...........	-327.66
	165	0.332	-2.76851E-001	4.37711E-006	0.00000E+000	-2.76100E-001	1.39022E-003	7	...........	-327.66
	166	0.334	-2.66855E-001	4.36176E-006	0.00000E+000	-2.66100E-001	1.46953E-003	7	...........	-327.66
	167	0.336	-2.56886E-001	4.34864E-006	0.00000E+000	-2.56100E-001	1.42815E-003	7	...........	-327.66
	168	0.338	-2.46859E-001	4.33888E-006	0.00000E+000	-2.46100E-001	1.39540E-003	7	...........	-327.66
	169	0.34	-2.36861E-001	4.32913E-006	0.00000E+000	-2.36100E-001	1.43333E-003	7	...........	-327.66
	170	0.342	-2.26905E-001	4.31937E-006	0.00000E+000	-2.26100E-001	1.43850E-003	7	...........	-327.66
	171	0.344	-2.16832E-001	4.31418E-006	0.00000E+000	-2.16100E-001	1.43333E-003	7	...........	-327.66
	172	0.346	-2.06883E-001	4.30806E-006	0.00000E+000	-2.06100E-001	1.45747E-003	7	...........	-327.66
	173	0.348	-1.96863E-001	4.30258E-006	0.00000E+000	-1.96100E-001	1.43333E-003	7	...........	-327.66
	174	0.35	-1.86901E-001	4.29858E-006	0.00000E+000	-1.86100E-001	1.43678E-003	7	...........	-327.66
	175	0.352	-1.76941E-001	4.29485E-006	0.00000E+000	-1.76100E-001	1.42126E-003	7	...........	-327.66
	176	0.354	-1.66892E-001	4.29228E-006	0.00000E+000	-1.66100E-001	1.36609E-003	7	...........	-327.66
	177	0.356	-1.56872E-001	4.29066E-006	0.00000E+000	-1.56100E-001	1.44712E-003	7	...........	-327.66
	178	0.358	-1.46916E-001	4.28785E-006	0.00000E+000	-1.46100E-001	1.46609E-003	7	...........	-327.66
	179	0.36	-1.36900E-001	4.28752E-006	0.00000E+000	-1.36100E-001	1.40057E-003	7	...........	-327.66
	180	0.362	-1.26920E-001	4.28644E-006	0.00000E+000	-1.26100E-001	1.45229E-003	7	...........	-327.66
	181	0.364	-1.16863E-001	4.28458E-006	0.00000E+000	-1.16100E-001	1.41953E-003	7	...........	-327.66
	182	0.366	-1.06911E-001	4.28425E-006	0.00000E+000	-1.06100E-001	1.39367E-003	7	...........	-327.66
	183	0.368	-9.69141E-002	4.28327E-006	0.00000E+000	-9.61000E-002	1.41781E-003	7	...........	-327.66
	184	0.37	-8.68572E-002	4.28230E-006	0.00000E+000	-8.61000E-002	1.41436E-003	7	...........	-327.66
	185	0.372	-7.68839E-002	4.28132E-006	0.00000E+000	-7.61000E-002	1.46091E-003	7	...........	-327.66
	186	0.374	-6.68848E-002	4.27975E-006	0.00000E+000	-6.61000E-002	1.36609E-003	7	...........	-327.66
	187	0.376	-5.69046E-002	4.27833E-006	0.00000E+000	-5.61000E-002	1.35402E-003	7	...........	-327.66
	188	0.378	-4.69046E-002	4.27575E-006	0.00000E+000	-4.61000E-002	1.42988E-003	7	...........	-327.66
	189	0.38	-3.68442E-002	4.27394E-006	0.00000E+000	-3.61000E-002	1.44712E-003	7	...........	-327.66
	190	0.382	-2.68994E-002	4.27147E-006	0.00000E+000	-2.61000E-002	1.41609E-003	7	...........	-327.66
	191	0.384	-1.69046E-002	4.26768E-006	0.00000E+000	-1.61000E-002	1.40747E-003	7	...........	-327.66
	192	0.386	-6.89597E-003	4.26407E-006	0.00000E+000	-6.10001E-003	1.43160E-003	7	...........	-327.66
	193	0.388	3.12300E-003	4.25961E-006	0.00000E+000	3.89999E-003	1.38678E-003	7	...........	-327.66
	194	0.39	1.31575E-002	4.25609E-006	0.00000E+000	1.39000E-002	1.44540E-003	7	...........	-327.66
	195	0.392	2.31282E-002	4.25114E-006	0.00000E+000	2.39000E-002	1.43850E-003	7	...........	-327.66
	196	0.394	3.31402E-002	4.24593E-006	0.00000E+000	3.39000E-002	1.39712E-003	7	...........	-327.66
	197	0.396	4.31566E-002	4.23900E-006	0.00000E+000	4.39000E-002	1.38333E-003	7	...........	-327.66
	198	0.398	5.31152E-002	4.23334E-006	0.00000E+000	5.39000E-002	1.38678E-003	7	...........	-327.66
	199	0.4	6.31135E-002	4.22650E-006	0.00000E+000	6.39000E-002	1.39367E-003	7	...........	-327.66
	200	0.402	7.31351E-002	4.21951E-006	0.00000E+000	7.39000E-002	1.42126E-003	7	...........	-327.66
	201	0.404	8.31480E-002	4.21214E-006	0.00000E+000	8.39000E-002	1.40402E-003	7	...........	-327.66
	202	0.406	9.31144E-002	4.20344E-006	0.00000E+000	9.39000E-002	1.38505E-003	7	...........	-327.66
	203	0.408	1.03111E-001	4.19651E-006	0.00000E+000	1.03900E-001	1.44022E-003	7	...........	-327.66
	204	0.41	1.13127E-001	4.18865E-006	0.00000E+000	1.13900E-001	1.44540E-003	7	...........	-327.66
	205	0.412	1.23154E-001	4.18118E-006	0.00000E+000	1.23900E-001	1.43160E-003	7	...........	-327.66
	206	0.414	1.33086E-001	4.17146E-006	0.00000E+000	1.33900E-001	1.39022E-003	7	...........	-327.66
	207	0.416	1.43164E-001	4.16423E-006	0.00000E+000	1.43900E-001	1.43160E-003	7	...........	-327.66
	208	0.418	1.53120E-001	4.15564E-006	0.00000E+000	1.53900E-001	1.40747E-003	7	...........	-327.66
	209	0.42	1.63168E-001	4.14802E-006	0.00000E+000	1.63900E-001	1.45229E-003	7	...........	-327.66
	210	0.422	1.73139E-001	4.13988E-006	0.00000E+000	1.73900E-001	1.46436E-003	7	...........	-327.66
	211	0.424	1.83124E-001	4.13216E-006	0.00000E+000	1.83900E-001	1.43850E-003	7	...........	-327.66
	212	0.426	1.93160E-001	4.12416E-006	0.00000E+000	1.93900E-001	1.44712E-003	7	...........	-327.66
	213	0.428	2.03152E-001	4.11723E-006	0.00000E+000	2.03900E-001	1.41953E-003	7	...........	-327.66
	214	0.43	2.13066E-001	4.10971E-006	0.00000E+000	2.13900E-001	1.43333E-003	7	...........	-327.66
	215	0.432	2.23112E-001	4.10276E-006	0.00000E+000	2.23900E-001	1.40919E-003	7	...........	-327.66
	216	0.434	2.33103E-001	4.09681E-006	0.00000E+000	2.33900E-001	1.42471E-003	7	...........	-327.66
	217	0.436	2.43159E-001	4.08995E-006	0.00000E+000	2.43900E-001	1.34884E-003	7	...........	-327.66
	218	0.438	2.53101E-001	4.08432E-006	0.00000E+000	2.53900E-001	1.44195E-003	7	...........	-327.66
	219	0.44	2.63058E-001	4.07991E-006	0.00000E+000	2.63900E-001	1.43160E-003	7	...........	-327.66
	220	0.442	2.73075E-001	4.07427E-006	0.00000E+000	2.73900E-001	1.42298E-003	7	...........	-327.66
	221	0.444	2.83113E-001	4.07031E-006	0.00000E+000	2.83900E-001	1.42815E-003	7	...........	-327.66
	222	0.446	2.93075E-001	4.06724E-006	0.00000E+000	2.93900E-001	1.43160E-003	7	...........	-327.66
	223	0.448	3.03078E-001	4.06524E-006	0.00000E+000	3.03900E-001	1.39367E-003	7	...........	-327.66
	224	0.45	3.13089E-001	4.06249E-006	0.00000E+000	3.13900E-001	1.46609E-003	7	...........	-327.66
	225	0.452	3.23144E-001	4.06192E-006	0.00000E+000	3.23900E-001	1.47643E-003	7	...........	-327.66
	226	0.454	3.33087E-001	4.06123E-006	0.00000E+000	3.33900E-001	1.44540E-003	7	...........	-327.66
	227	0.456	3.43119E-001	4.06206E-006	0.00000E+000	3.43900E-001	1.42643E-003	7	...........	-327.66
	228	0.458	3.53088E-001	4.06498E-006	0.00000E+000	3.53900E-001	1.41609E-003	7	...........	-327.66
	229	0.46	3.63130E-001	4.06658E-006	0.00000E+000	3.63900E-001	1.38678E-003	7	...........	-327.66
	230	0.462	3.73109E-001	4.07096E-006	0.00000E+000	3.73900E-001	1.42471E-003	7	...........	-327.66
	231	0.464	3.83099E-001	4.07494E-006	0.00000E+000	3.83900E-001	1.39712E-003	7	...........	-327.66
	232	0.466	3.93087E-001	4.08181E-006	0.00000E+000	3.93900E-001	1.36781E-003	7	...........	-327.66
	233	0.468	4.03114E-001	4.08855E-006	0.00000E+000	4.03900E-001	1.41264E-003	7	...........	-327.66
	234	0.47	4.13038E-001	4.09527E-006	0.00000E+000	4.13900E-001	1.38678E-003	7	...........	-327.66
	235	0.472	4.22950E-001	4.10700E-006	0.00000E+000	4.23900E-001	1.42298E-003	7	...........	-327.66
	236	0.474	4.33079E-001	4.11635E-006	0.00000E+000	4.33900E-001	1.36953E-003	7	...........	-327.66
	237	0.476	4.43088E-001	4.12850E-006	0.00000E+000	4.43900E-001	1.39884E-003	7	...........	-327.66
	238	0.478	4.53070E-001	4.14187E-006	0.00000E+000	4.53900E-001	1.39367E-003	7	...........	-327.66
	239	0.48	4.63036E-001	4.15551E-006	0.00000E+000	4.63900E-001	1.38160E-003	7	...........	-327.66
	240	0.482	4.73040E-001	4.17199E-006	0.00000E+000	4.73900E-001	1.41091E-003	7	...........	-327.66
	241	0.484	4.83106E-001	4.18846E-006	0.00000E+000	4.83900E-001	1.48160E-003	7	...........	-327.66
	242	0.486	4.93024E-001	4.20577E-006	0.00000E+000	4.93900E-001	1.44712E-003	7	...........	-327.66
	243	0.488	5.03083E-001	4.22564E-006	0.00000E+000	5.03900E-001	1.42643E-003	7	...........	-327.66
	244	0.49	5.13045E-001	4.24636E-006	0.00000E+000	5.13900E-001	1.40747E-003	7	...........	-327.66
	245	0.492	5.23097E-001	4.26861E-006	0.00000E+000	5.23900E-001	1.38678E-003	7	...........	-327.66
	246	0.494	5.33076E-001	4.29189E-006	0.00000E+000	5.33900E-001	1.39884E-003	7	...........	-327.66
	247	0.496	5.43048E-001	4.31534E-006	0.00000E+000	5.43900E-001	1.43850E-003	7	...........	-327.66
	248	0.498	5.53059E-001	4.34067E-006	0.00000E+000	5.53900E-001	1.40402E-003	7	...........	-327.66
	249	0.5	5.63092E-001	4.36669E-006	0.00000E+000	5.63900E-001	1.43850E-003	7	...........	-327.66
	250	0.502	5.73054E-001	4.39357E-006	0.00000E+000	5.73900E-001	1.42815E-003	7	...........	-327.66
	251	0.504	5.83062E-001	4.42177E-006	0.00000E+000	5.83900E-001	1.37471E-003	7	...........	-327.66
	252	0.506	5.93045E-001	4.44993E-006	0.00000E+000	5.93900E-001	1.39367E-003	7	...........	-327.66
	253	0.508	6.03120E-001	4.48060E-006	0.00000E+000	6.03900E-001	1.42126E-003	7	...........	-327.66
CURVE2	TABLE
	Pt	T	Vf	Im	Vu	Sig	Ach	IERange	Over	Temp
	#	s	V vs. Ref.	A	V	V	V	#	bits	deg C
	254	0.51	5.91055E-001	2.52487E-006	0.00000E+000	5.90000E-001	1.38160E-003	7	...........	-327.66
	255	0.512	5.80765E-001	1.72304E-006	0.00000E+000	5.80000E-001	1.45402E-003	7	...........	-327.66
	256	0.514	5.70732E-001	1.08254E-006	0.00000E+000	5.70000E-001	1.42126E-003	7	...........	-327.66
	257	0.516	5.60732E-001	5.45445E-007	0.00000E+000	5.60000E-001	1.39712E-003	7	...........	-327.66
	258	0.518	5.50773E-001	8.55379E-008	0.00000E+000	5.50000E-001	1.40402E-003	7	...........	-327.66
	259	0.52	5.40781E-001	-3.14103E-007	0.00000E+000	5.40000E-001	1.38505E-003	7	...........	-327.66
	260	0.522	5.30782E-001	-6.63116E-007	0.00000E+000	5.30000E-001	1.38333E-003	7	...........	-327.66
	261	0.524	5.20753E-001	-9.70796E-007	0.00000E+000	5.20000E-001	1.45919E-003	7	...........	-327.66
	262	0.526	5.10762E-001	-1.24280E-006	0.00000E+000	5.10000E-001	1.39884E-003	7	...........	-327.66
	263	0.528	5.00793E-001	-1.48478E-006	0.00000E+000	5.00000E-001	1.37643E-003	7	...........	-327.66
	264	0.53	4.90740E-001	-1.69986E-006	0.00000E+000	4.90000E-001	1.38850E-003	7	...........	-327.66
	265	0.532	4.80733E-001	-1.89127E-006	0.00000E+000	4.80000E-001	1.44022E-003	7	...........	-327.66
	266	0.534	4.70771E-001	-2.06293E-006	0.00000E+000	4.70000E-001	1.42815E-003	7	...........	-327.66
	267	0.536	4.60776E-001	-2.21809E-006	0.00000E+000	4.60000E-001	1.39540E-003	7	...........	-327.66
	268	0.538	4.50840E-001	-2.35607E-006	0.00000E+000	4.50000E-001	1.41781E-003	7	...........	-327.66
	269	0.54	4.40745E-001	-2.48171E-006	0.00000E+000	4.40000E-001	1.44884E-003	7	...........	-327.66
	270	0.542	4.30795E-001	-2.59353E-006	0.00000E+000	4.30000E-001	1.45229E-003	7	...........	-327.66
	271	0.544	4.20796E-001	-2.69746E-006	0.00000E+000	4.20000E-001	1.47298E-003	7	...........	-327.66
	272	0.546	4.10757E-001	-2.79039E-006	0.00000E+000	4.10000E-001	1.41436E-003	7	...........	-327.66
	273	0.548	4.00773E-001	-2.87633E-006	0.00000E+000	4.00000E-001	1.42298E-003	7	...........	-327.66
	274	0.55	3.90784E-001	-2.95546E-006	0.00000E+000	3.90000E-001	1.41264E-003	7	...........	-327.66
	275	0.552	3.80787E-001	-3.02637E-006	0.00000E+000	3.80000E-001	1.40574E-003	7	...........	-327.66
	276	0.554	3.70794E-001	-3.09379E-006	0.00000E+000	3.70000E-001	1.45057E-003	7	...........	-327.66
	277	0.556	3.60763E-001	-3.15535E-006	0.00000E+000	3.60000E-001	1.45057E-003	7	...........	-327.66
	278	0.558	3.50792E-001	-3.21295E-006	0.00000E+000	3.50000E-001	1.41953E-003	7	...........	-327.66
	279	0.56	3.40792E-001	-3.26711E-006	0.00000E+000	3.40000E-001	1.39540E-003	7	...........	-327.66
	280	0.562	3.30817E-001	-3.31613E-006	0.00000E+000	3.30000E-001	1.43678E-003	7	...........	-327.66
	281	0.564	3.20791E-001	-3.36359E-006	0.00000E+000	3.20000E-001	1.45229E-003	7	...........	-327.66
	282	0.566	3.10795E-001	-3.40921E-006	0.00000E+000	3.10000E-001	1.40919E-003	7	...........	-327.66
	283	0.568	3.00804E-001	-3.45198E-006	0.00000E+000	3.00000E-001	1.43505E-003	7	...........	-327.66
	284	0.57	2.90765E-001	-3.49119E-006	0.00000E+000	2.90000E-001	1.44884E-003	7	...........	-327.66
	285	0.572	2.80766E-001	-3.52975E-006	0.00000E+000	2.80000E-001	1.43160E-003	7	...........	-327.66
	286	0.574	2.70857E-001	-3.56543E-006	0.00000E+000	2.70000E-001	1.39367E-003	7	...........	-327.66
	287	0.576	2.60777E-001	-3.60105E-006	0.00000E+000	2.60000E-001	1.40574E-003	7	...........	-327.66
	288	0.578	2.50813E-001	-3.63262E-006	0.00000E+000	2.50000E-001	1.36953E-003	7	...........	-327.66
	289	0.58	2.40781E-001	-3.66568E-006	0.00000E+000	2.40000E-001	1.38678E-003	7	...........	-327.66
	290	0.582	2.30806E-001	-3.69649E-006	0.00000E+000	2.30000E-001	1.45574E-003	7	...........	-327.66
	291	0.584	2.20803E-001	-3.72577E-006	0.00000E+000	2.20000E-001	1.44884E-003	7	...........	-327.66
	292	0.586	2.10770E-001	-3.75483E-006	0.00000E+000	2.10000E-001	1.41609E-003	7	...........	-327.66
	293	0.588	2.00796E-001	-3.78175E-006	0.00000E+000	2.00000E-001	1.41436E-003	7	...........	-327.66
	294	0.59	1.90842E-001	-3.80773E-006	0.00000E+000	1.90000E-001	1.42643E-003	7	...........	-327.66
	295	0.592	1.80826E-001	-3.83339E-006	0.00000E+000	1.80000E-001	1.45229E-003	7	...........	-327.66
	296	0.594	1.70840E-001	-3.85805E-006	0.00000E+000	1.70000E-001	1.40057E-003	7	...........	-327.66
	297	0.596	1.60809E-001	-3.88323E-006	0.00000E+000	1.60000E-001	1.38850E-003	7	...........	-327.66
	298	0.598	1.50820E-001	-3.90580E-006	0.00000E+000	1.50000E-001	1.42988E-003	7	...........	-327.66
	299	0.6	1.40889E-001	-3.92901E-006	0.00000E+000	1.40000E-001	1.44540E-003	7	...........	-327.66
	300	0.602	1.30852E-001	-3.95091E-006	0.00000E+000	1.30000E-001	1.38333E-003	7	...........	-327.66
	301	0.604	1.20819E-001	-3.97319E-006	0.00000E+000	1.20000E-001	1.40229E-003	7	...........	-327.66
	302	0.606	1.10820E-001	-3.99350E-006	0.00000E+000	1.10000E-001	1.44022E-003	7	...........	-327.66
	303	0.608	1.00798E-001	-4.01343E-006	0.00000E+000	1.00000E-001	1.42298E-003	7	...........	-327.66
	304	0.61	9.08946E-002	-4.03273E-006	0.00000E+000	9.00000E-002	1.43678E-003	7	...........	-327.66
	305	0.612	8.07782E-002	-4.05277E-006	0.00000E+000	8.00000E-002	1.42471E-003	7	...........	-327.66
	306	0.614	7.07963E-002	-4.07222E-006	0.00000E+000	7.00000E-002	1.40402E-003	7	...........	-327.66
	307	0.616	6.08333E-002	-4.09003E-006	0.00000E+000	6.00000E-002	1.41609E-003	7	...........	-327.66
	308	0.618	5.08221E-002	-4.10877E-006	0.00000E+000	5.00000E-002	1.39540E-003	7	...........	-327.66
	309	0.62	4.07997E-002	-4.12690E-006	0.00000E+000	4.00000E-002	1.40574E-003	7	...........	-327.66
	310	0.622	3.07963E-002	-4.14461E-006	0.00000E+000	3.00000E-002	1.41436E-003	7	...........	-327.66
	311	0.624	2.08264E-002	-4.16171E-006	0.00000E+000	2.00000E-002	1.45919E-003	7	...........	-327.66
	312	0.626	1.08514E-002	-4.17732E-006	0.00000E+000	9.99999E-003	1.41953E-003	7	...........	-327.66
	313	0.628	8.01445E-004	-4.19551E-006	0.00000E+000	-1.49012E-008	1.38160E-003	7	...........	-327.66
	314	0.63	-9.15631E-003	-4.21234E-006	0.00000E+000	-1.00000E-002	1.46781E-003	7	...........	-327.66
	315	0.632	-1.91684E-002	-4.22864E-006	0.00000E+000	-2.00000E-002	1.41264E-003	7	...........	-327.66
	316	0.634	-2.92098E-002	-4.24452E-006	0.00000E+000	-3.00000E-002	1.38505E-003	7	...........	-327.66
	317	0.636	-3.91572E-002	-4.26114E-006	0.00000E+000	-4.00000E-002	1.40574E-003	7	...........	-327.66
	318	0.638	-4.91951E-002	-4.27650E-006	0.00000E+000	-5.00000E-002	1.42471E-003	7	...........	-327.66
	319	0.64	-5.91537E-002	-4.29340E-006	0.00000E+000	-6.00000E-002	1.41609E-003	7	...........	-327.66
	320	0.642	-6.91511E-002	-4.30713E-006	0.00000E+000	-7.00000E-002	1.41609E-003	7	...........	-327.66
	321	0.644	-7.92046E-002	-4.32187E-006	0.00000E+000	-8.00000E-002	1.44884E-003	7	...........	-327.66
	322	0.646	-8.91615E-002	-4.33775E-006	0.00000E+000	-9.00000E-002	1.42988E-003	7	...........	-327.66
	323	0.648	-9.91649E-002	-4.35357E-006	0.00000E+000	-1.00000E-001	1.45402E-003	7	...........	-327.66
	324	0.65	-1.09179E-001	-4.36752E-006	0.00000E+000	-1.10000E-001	1.45747E-003	7	...........	-327.66
	325	0.652	-1.19188E-001	-4.38261E-006	0.00000E+000	-1.20000E-001	1.39540E-003	7	...........	-327.66
	326	0.654	-1.29220E-001	-4.39538E-006	0.00000E+000	-1.30000E-001	1.38333E-003	7	...........	-327.66
	327	0.656	-1.39170E-001	-4.40840E-006	0.00000E+000	-1.40000E-001	1.47815E-003	7	...........	-327.66
	328	0.658	-1.49218E-001	-4.42227E-006	0.00000E+000	-1.50000E-001	1.42126E-003	7	...........	-327.66
	329	0.66	-1.59194E-001	-4.43375E-006	0.00000E+000	-1.60000E-001	1.44022E-003	7	...........	-327.66
	330	0.662	-1.69164E-001	-4.44487E-006	0.00000E+000	-1.70000E-001	1.42815E-003	7	...........	-327.66
	331	0.664	-1.79185E-001	-4.45605E-006	0.00000E+000	-1.80000E-001	1.44712E-003	7	...........	-327.66
	332	0.666	-1.89122E-001	-4.46719E-006	0.00000E+000	-1.90000E-001	1.39022E-003	7	...........	-327.66
	333	0.668	-1.99206E-001	-4.47917E-006	0.00000E+000	-2.00000E-001	1.45574E-003	7	...........	-327.66
	334	0.67	-2.09164E-001	-4.48774E-006	0.00000E+000	-2.10000E-001	1.42471E-003	7	...........	-327.66
	335	0.672	-2.19126E-001	-4.49673E-006	0.00000E+000	-2.20000E-001	1.41091E-003	7	...........	-327.66
	336	0.674	-2.29178E-001	-4.50385E-006	0.00000E+000	-2.30000E-001	1.39540E-003	7	...........	-327.66
	337	0.676	-2.39188E-001	-4.51143E-006	0.00000E+000	-2.40000E-001	1.41264E-003	7	...........	-327.66
	338	0.678	-2.49165E-001	-4.51873E-006	0.00000E+000	-2.50000E-001	1.45747E-003	7	...........	-327.66
	339	0.68	-2.59156E-001	-4.52456E-006	0.00000E+000	-2.60000E-001	1.40747E-003	7	...........	-327.66
	340	0.682	-2.69124E-001	-4.52971E-006	0.00000E+000	-2.70000E-001	1.36609E-003	7	...........	-327.66
	341	0.684	-2.79174E-001	-4.53380E-006	0.00000E+000	-2.80000E-001	1.40574E-003	7	...........	-327.66
	342	0.686	-2.89138E-001	-4.53799E-006	0.00000E+000	-2.90000E-001	1.35747E-003	7	...........	-327.66
	343	0.688	-2.99143E-001	-4.54042E-006	0.00000E+000	-3.00000E-001	1.43505E-003	7	...........	-327.66
	344	0.69	-3.09180E-001	-4.54071E-006	0.00000E+000	-3.10000E-001	1.40919E-003	7	...........	-327.66
	345	0.692	-3.19167E-001	-4.54349E-006	0.00000E+000	-3.20000E-001	1.40402E-003	7	...........	-327.66
	346	0.694	-3.29180E-001	-4.54245E-006	0.00000E+000	-3.30000E-001	1.42126E-003	7	...........	-327.66
	347	0.696	-3.39166E-001	-4.54354E-006	0.00000E+000	-3.40000E-001	1.43505E-003	7	...........	-327.66
	348	0.698	-3.49144E-001	-4.54182E-006	0.00000E+000	-3.50000E-001	1.44884E-003	7	...........	-327.66
	349	0.7	-3.59198E-001	-4.54189E-006	0.00000E+000	-3.60000E-001	1.41609E-003	7	...........	-327.66
	350	0.702	-3.69068E-001	-4.53975E-006	0.00000E+000	-3.70000E-001	1.40747E-003	7	...........	-327.66
	351	0.704	-3.79159E-001	-4.53813E-006	0.00000E+000	-3.80000E-001	1.45747E-003	7	...........	-327.66
	352	0.706	-3.89130E-001	-4.53404E-006	0.00000E+000	-3.90000E-001	1.42815E-003	7	...........	-327.66
	353	0.708	-3.99155E-001	-4.53138E-006	0.00000E+000	-4.00000E-001	1.37298E-003	7	...........	-327.66
	354	0.71	-4.09183E-001	-4.52709E-006	0.00000E+000	-4.10000E-001	1.34022E-003	7	...........	-327.66
	355	0.712	-4.19102E-001	-4.52307E-006	0.00000E+000	-4.20000E-001	1.40229E-003	7	...........	-327.66
	356	0.714	-4.29155E-001	-4.51900E-006	0.00000E+000	-4.30000E-001	1.37471E-003	7	...........	-327.66
	357	0.716	-4.39179E-001	-4.51274E-006	0.00000E+000	-4.40000E-001	1.44540E-003	7	...........	-327.66
	358	0.718	-4.49093E-001	-4.50750E-006	0.00000E+000	-4.50000E-001	1.43678E-003	7	...........	-327.66
	359	0.72	-4.59143E-001	-4.50169E-006	0.00000E+000	-4.60000E-001	1.43850E-003	7	...........	-327.66
	360	0.722	-4.69085E-001	-4.49402E-006	0.00000E+000	-4.70000E-001	1.37988E-003	7	...........	-327.66
	361	0.724	-4.79125E-001	-4.48657E-006	0.00000E+000	-4.80000E-001	1.39540E-003	7	...........	-327.66
	362	0.726	-4.89136E-001	-4.47560E-006	0.00000E+000	-4.90000E-001	1.45747E-003	7	...........	-327.66
	363	0.728	-4.99054E-001	-4.46498E-006	0.00000E+000	-5.00000E-001	1.44884E-003	7	...........	-327.66
	364	0.73	-5.09164E-001	-4.45330E-006	0.00000E+000	-5.10000E-001	1.39195E-003	7	...........	-327.66
	365	0.732	-5.19167E-001	-4.43906E-006	0.00000E+000	-5.20000E-001	1.44367E-003	7	...........	-327.66
	366	0.734	-5.29150E-001	-4.42111E-006	0.00000E+000	-5.30000E-001	1.37298E-003	7	...........	-327.66
	367	0.736	-5.39153E-001	-4.40069E-006	0.00000E+000	-5.40000E-001	1.41953E-003	7	...........	-327.66
	368	0.738	-5.49090E-001	-4.37583E-006	0.00000E+000	-5.50000E-001	1.37988E-003	7	...........	-327.66
	369	0.74	-5.59166E-001	-4.34541E-006	0.00000E+000	-5.60000E-001	1.38160E-003	7	...........	-327.66
	370	0.742	-5.69133E-001	-4.31220E-006	0.00000E+000	-5.70000E-001	1.43505E-003	7	...........	-327.66
	371	0.744	-5.79085E-001	-4.27087E-006	0.00000E+000	-5.80000E-001	1.39540E-003	7	...........	-327.66
	372	0.746	-5.89139E-001	-4.22219E-006	0.00000E+000	-5.90000E-001	1.43160E-003	7	...........	-327.66
	373	0.748	-5.99150E-001	-4.16571E-006	0.00000E+000	-6.00000E-001	1.43678E-003	7	...........	-327.66
	374	0.75	-6.09145E-001	-4.10146E-006	0.00000E+000	-6.10000E-001	1.38160E-003	7	...........	-327.66
	375	0.752	-6.19140E-001	-4.02856E-006	0.00000E+000	-6.20000E-001	1.42815E-003	7	...........	-327.66
[...]
	700	1.402	-8.69111E-001	-1.08064E-006	0.00000E+000	-8.70000E-001	1.42298E-003	7	...........	-327.66
	701	1.404	-8.79149E-001	-1.02580E-006	0.00000E+000	-8.80000E-001	1.44022E-003	7	...........	-327.66
	702	1.406	-8.89094E-001	-9.79383E-007	0.00000E+000	-8.90000E-001	1.41953E-003	7	...........	-327.66
	703	1.408	-8.99143E-001	-9.37429E-007	0.00000E+000	-9.00000E-001	1.40229E-003	7	...........	-327.66
	704	1.41	-8.90694E-001	-8.29190E-007	0.00000E+000	-8.90000E-001	1.43505E-003	7	...........	-327.66
	705	1.412	-8.80748E-001	-7.51024E-007	0.00000E+000	-8.80000E-001	1.39022E-003	7	...........	-327.66
	706	1.414	-8.70730E-001	-6.89809E-007	0.00000E+000	-8.70000E-001	1.40747E-003	7	...........	-327.66
	707	1.416	-8.60652E-001	-6.39078E-007	0.00000E+000	-8.60000E-001	1.35747E-003	7	...........	-327.66
	708	1.418	-8.50689E-001	-5.93313E-007	0.00000E+000	-8.50000E-001	1.38333E-003	7	...........	-327.66
	709	1.42	-8.40672E-001	-5.54015E-007	0.00000E+000	-8.40000E-001	1.36264E-003	7	...........	-327.66
	710	1.422	-8.30640E-001	-5.15716E-007	0.00000E+000	-8.30000E-001	1.37471E-003	7	...........	-327.66
	711	1.424	-8.20668E-001	-4.77797E-007	0.00000E+000	-8.20000E-001	1.37988E-003	7	...........	-327.66
	712	1.426	-8.10636E-001	-4.41396E-007	0.00000E+000	-8.10000E-001	1.39022E-003	7	...........	-327.66
	713	1.428	-8.00728E-001	-4.05426E-007	0.00000E+000	-8.00000E-001	1.41436E-003	7	...........	-327.66
	714	1.43	-7.90687E-001	-3.68472E-007	0.00000E+000	-7.90000E-001	1.42988E-003	7	...........	-327.66
	715	1.432	-7.80582E-001	-3.29450E-007	0.00000E+000	-7.80000E-001	1.39367E-003	7	...........	-327.66
	716	1.434	-7.70686E-001	-2.89806E-007	0.00000E+000	-7.70000E-001	1.39195E-003	7	...........	-327.66
	717	1.436	-7.60736E-001	-2.44179E-007	0.00000E+000	-7.60000E-001	1.39712E-003	7	...........	-327.66
	718	1.438	-7.50726E-001	-1.95638E-007	0.00000E+000	-7.50000E-001	1.40574E-003	7	...........	-327.66
	719	1.44	-7.40750E-001	-1.44080E-007	0.00000E+000	-7.40000E-001	1.38160E-003	7	...........	-327.66
	720	1.442	-7.30694E-001	-8.69683E-008	0.00000E+000	-7.30000E-001	1.43160E-003	7	...........	-327.66
	721	1.444	-7.20745E-001	-2.53048E-008	0.00000E+000	-7.20000E-001	1.37471E-003	7	...........	-327.66
	722	1.446	-7.10688E-001	4.31701E-008	0.00000E+000	-7.10000E-001	1.39540E-003	7	...........	-327.66
	723	1.448	-7.00744E-001	1.18353E-007	0.00000E+000	-7.00000E-001	1.42126E-003	7	...........	-327.66
	724	1.45	-6.90728E-001	2.01830E-007	0.00000E+000	-6.90000E-001	1.46091E-003	7	...........	-327.66
	725	1.452	-6.80702E-001	2.94739E-007	0.00000E+000	-6.80000E-001	1.44884E-003	7	...........	-327.66
	726	1.454	-6.70680E-001	3.97684E-007	0.00000E+000	-6.70000E-001	1.44367E-003	7	...........	-327.66
	727	1.456	-6.60728E-001	5.10906E-007	0.00000E+000	-6.60000E-001	1.39540E-003	7	...........	-327.66
	728	1.458	-6.50691E-001	6.37475E-007	0.00000E+000	-6.50000E-001	1.42988E-003	7	...........	-327.66
	729	1.46	-6.40736E-001	7.79391E-007	0.00000E+000	-6.40000E-001	1.43678E-003	7	...........	-327.66
	730	1.462	-6.30666E-001	9.36964E-007	0.00000E+000	-6.30000E-001	1.40229E-003	7	...........	-327.66
	731	1.464	-6.20759E-001	1.11064E-006	0.00000E+000	-6.20000E-001	1.40919E-003	7	...........	-327.66
	732	1.466	-6.10769E-001	1.30479E-006	0.00000E+000	-6.10000E-001	1.40919E-003	7	...........	-327.66
	733	1.468	-6.00746E-001	1.51915E-006	0.00000E+000	-6.00000E-001	1.42126E-003	7	...........	-327.66
	734	1.47	-5.90758E-001	1.75440E-006	0.00000E+000	-5.90000E-001	1.39022E-003	7	...........	-327.66
	735	1.472	-5.80727E-001	2.01480E-006	0.00000E+000	-5.80000E-001	1.43678E-003	7	...........	-327.66
	736	1.474	-5.70768E-001	2.29958E-006	0.00000E+000	-5.70000E-001	1.39022E-003	7	...........	-327.66
	737	1.476	-5.60756E-001	2.61074E-006	0.00000E+000	-5.60000E-001	1.39540E-003	7	...........	-327.66
	738	1.478	-5.50667E-001	2.94174E-006	0.00000E+000	-5.50000E-001	1.44022E-003	7	...........	-327.66
	739	1.48	-5.40787E-001	3.29475E-006	0.00000E+000	-5.40000E-001	1.38850E-003	7	...........	-327.66
	740	1.482	-5.30771E-001	3.66404E-006	0.00000E+000	-5.30000E-001	1.35919E-003	7	...........	-327.66
	741	1.484	-5.20759E-001	4.03842E-006	0.00000E+000	-5.20000E-001	1.44712E-003	7	...........	-327.66
	742	1.486	-5.10772E-001	4.40813E-006	0.00000E+000	-5.10000E-001	1.46609E-003	7	...........	-327.66
	743	1.488	-5.00730E-001	4.75336E-006	0.00000E+000	-5.00000E-001	1.36436E-003	7	...........	-327.66
	744	1.49	-4.90773E-001	5.05537E-006	0.00000E+000	-4.90000E-001	1.43160E-003	7	...........	-327.66
	745	1.492	-4.80780E-001	5.29523E-006	0.00000E+000	-4.80000E-001	1.43160E-003	7	...........	-327.66
	746	1.494	-4.70718E-001	5.45887E-006	0.00000E+000	-4.70000E-001	1.48505E-003	7	...........	-327.66
	747	1.496	-4.60765E-001	5.54549E-006	0.00000E+000	-4.60000E-001	1.42815E-003	7	...........	-327.66
	748	1.498	-4.50728E-001	5.55711E-006	0.00000E+000	-4.50000E-001	1.48505E-003	7	...........	-327.66
	749	1.5	-4.40785E-001	5.50797E-006	0.00000E+000	-4.40000E-001	1.41781E-003	7	...........	-327.66
	750	1.502	-4.30756E-001	5.41118E-006	0.00000E+000	-4.30000E-001	1.41953E-003	7	...........	-327.66
	751	1.504	-4.20757E-001	5.28799E-006	0.00000E+000	-4.20000E-001	1.39884E-003	7	...........	-327.66
	752	1.506	-4.10789E-001	5.15482E-006	0.00000E+000	-4.10000E-001	1.40229E-003	7	...........	-327.66
	753	1.508	-4.00793E-001	5.02083E-006	0.00000E+000	-4.00000E-001	1.44195E-003	7	...........	-327.66
	754	1.51	-3.90767E-001	4.89447E-006	0.00000E+000	-3.90000E-001	1.46953E-003	7	...........	-327.66
	755	1.512	-3.80805E-001	4.78071E-006	0.00000E+000	-3.80000E-001	1.40747E-003	7	...........	-327.66
	756	1.514	-3.70763E-001	4.68104E-006	0.00000E+000	-3.70000E-001	1.37815E-003	7	...........	-327.66
	757	1.516	-3.60783E-001	4.59698E-006	0.00000E+000	-3.60000E-001	1.41264E-003	7	...........	-327.66
	758	1.518	-3.50800E-001	4.52657E-006	0.00000E+000	-3.50000E-001	1.45919E-003	7	...........	-327.66
	759	1.52	-3.40792E-001	4.46726E-006	0.00000E+000	-3.40000E-001	1.41953E-003	7	...........	-327.66
	760	1.522	-3.30797E-001	4.42061E-006	0.00000E+000	-3.30000E-001	1.41091E-003	7	...........	-327.66
	761	1.524	-3.20784E-001	4.38133E-006	0.00000E+000	-3.20000E-001	1.38850E-003	7	...........	-327.66
	762	1.526	-3.10777E-001	4.35002E-006	0.00000E+000	-3.10000E-001	1.40747E-003	7	...........	-327.66
	763	1.528	-3.00797E-001	4.32467E-006	0.00000E+000	-3.00000E-001	1.41436E-003	7	...........	-327.66
	764	1.53	-2.90781E-001	4.30353E-006	0.00000E+000	-2.90000E-001	1.45057E-003	7	...........	-327.66
	765	1.532	-2.80803E-001	4.28701E-006	0.00000E+000	-2.80000E-001	1.44712E-003	7	...........	-327.66
	766	1.534	-2.70747E-001	4.27309E-006	0.00000E+000	-2.70000E-001	1.45402E-003	7	...........	-327.66
	767	1.536	-2.60780E-001	4.26093E-006	0.00000E+000	-2.60000E-001	1.44195E-003	7	...........	-327.66
	768	1.538	-2.50806E-001	4.25279E-006	0.00000E+000	-2.50000E-001	1.40402E-003	7	...........	-327.66
	769	1.54	-2.40787E-001	4.24550E-006	0.00000E+000	-2.40000E-001	1.41781E-003	7	...........	-327.66
	770	1.542	-2.30772E-001	4.24069E-006	0.00000E+000	-2.30000E-001	1.44367E-003	7	...........	-327.66
	771	1.544	-2.20737E-001	4.23538E-006	0.00000E+000	-2.20000E-001	1.41781E-003	7	...........	-327.66
	772	1.546	-2.10786E-001	4.23033E-006	0.00000E+000	-2.10000E-001	1.42643E-003	7	...........	-327.66
	773	1.548	-2.00817E-001	4.22795E-006	0.00000E+000	-2.00000E-001	1.41781E-003	7	...........	-327.66
	774	1.55	-1.90782E-001	4.22603E-006	0.00000E+000	-1.90000E-001	1.40919E-003	7	...........	-327.66
	775	1.552	-1.80801E-001	4.22419E-006	0.00000E+000	-1.80000E-001	1.41781E-003	7	...........	-327.66
	776	1.554	-1.70819E-001	4.22295E-006	0.00000E+000	-1.70000E-001	1.39884E-003	7	...........	-327.66
	777	1.556	-1.60811E-001	4.22181E-006	0.00000E+000	-1.60000E-001	1.45057E-003	7	...........	-327.66
	778	1.558	-1.50801E-001	4.22255E-006	0.00000E+000	-1.50000E-001	1.39195E-003	7	...........	-327.66
	779	1.56	-1.40799E-001	4.22265E-006	0.00000E+000	-1.40000E-001	1.43160E-003	7	...........	-327.66
	780	1.562	-1.30843E-001	4.22357E-006	0.00000E+000	-1.30000E-001	1.45574E-003	7	...........	-327.66
	781	1.564	-1.20824E-001	4.22345E-006	0.00000E+000	-1.20000E-001	1.42126E-003	7	...........	-327.66
	782	1.566	-1.10786E-001	4.22388E-006	0.00000E+000	-1.10000E-001	1.42815E-003	7	...........	-327.66
	783	1.568	-1.00801E-001	4.22408E-006	0.00000E+000	-1.00000E-001	1.44367E-003	7	...........	-327.66
	784	1.57	-9.07925E-002	4.22495E-006	0.00000E+000	-9.00000E-002	1.45057E-003	7	...........	-327.66
	785	1.572	-8.08244E-002	4.22569E-006	0.00000E+000	-8.00000E-002	1.36264E-003	7	...........	-327.66
	786	1.574	-7.07839E-002	4.22589E-006	0.00000E+000	-7.00000E-002	1.37815E-003	7	...........	-327.66
	787	1.576	-6.08029E-002	4.22553E-006	0.00000E+000	-6.00000E-002	1.41091E-003	7	...........	-327.66
	788	1.578	-5.08106E-002	4.22489E-006	0.00000E+000	-5.00000E-002	1.44884E-003	7	...........	-327.66
	789	1.58	-4.07848E-002	4.22483E-006	0.00000E+000	-4.00000E-002	1.40402E-003	7	...........	-327.66
	790	1.582	-3.08046E-002	4.22402E-006	0.00000E+000	-3.00000E-002	1.41264E-003	7	...........	-327.66
	791	1.584	-2.08037E-002	4.22069E-006	0.00000E+000	-2.00000E-002	1.39712E-003	7	...........	-327.66
	792	1.586	-1.07830E-002	4.21986E-006	0.00000E+000	-1.00000E-002	1.42471E-003	7	...........	-327.66
	793	1.588	-8.12348E-004	4.21695E-006	0.00000E+000	-1.49012E-008	1.37298E-003	7	...........	-327.66
	794	1.59	9.23334E-003	4.21503E-006	0.00000E+000	9.99999E-003	1.39022E-003	7	...........	-327.66
	795	1.592	1.92290E-002	4.21146E-006	0.00000E+000	2.00000E-002	1.38678E-003	7	...........	-327.66
	796	1.594	2.91997E-002	4.20653E-006	0.00000E+000	3.00000E-002	1.44022E-003	7	...........	-327.66
	797	1.596	3.91308E-002	4.20391E-006	0.00000E+000	4.00000E-002	1.41091E-003	7	...........	-327.66
	798	1.598	4.92178E-002	4.19863E-006	0.00000E+000	5.00000E-002	1.41436E-003	7	...........	-327.66
	799	1.6	5.92221E-002	4.19374E-006	0.00000E+000	6.00000E-002	1.44022E-003	7	...........	-327.66
	800	1.602	6.92144E-002	4.18777E-006	0.00000E+000	7.00000E-002	1.43160E-003	7	...........	-327.66
	801	1.604	7.91601E-002	4.18122E-006	0.00000E+000	8.00000E-002	1.38850E-003	7	...........	-327.66
	802	1.606	8.92704E-002	4.17670E-006	0.00000E+000	9.00000E-002	1.39712E-003	7	...........	-327.66
	803	1.608	9.92066E-002	4.16982E-006	0.00000E+000	1.00000E-001	1.45229E-003	7	...........	-327.66
	804	1.61	1.09225E-001	4.16292E-006	0.00000E+000	1.10000E-001	1.46609E-003	7	...........	-327.66
	805	1.612	1.19253E-001	4.15554E-006	0.00000E+000	1.20000E-001	1.41609E-003	7	...........	-327.66
	806	1.614	1.29211E-001	4.15021E-006	0.00000E+000	1.30000E-001	1.43850E-003	7	...........	-327.66
	807	1.616	1.39256E-001	4.14247E-006	0.00000E+000	1.40000E-001	1.45574E-003	7	...........	-327.66
	808	1.618	1.49223E-001	4.13621E-006	0.00000E+000	1.50000E-001	1.39367E-003	7	...........	-327.66
	809	1.62	1.59198E-001	4.12776E-006	0.00000E+000	1.60000E-001	1.41091E-003	7	...........	-327.66
	810	1.622	1.69257E-001	4.12142E-006	0.00000E+000	1.70000E-001	1.40574E-003	7	...........	-327.66
	811	1.624	1.79199E-001	4.11483E-006	0.00000E+000	1.80000E-001	1.46953E-003	7	...........	-327.66
	812	1.626	1.89220E-001	4.10953E-006	0.00000E+000	1.90000E-001	1.47298E-003	7	...........	-327.66
	813	1.628	1.99211E-001	4.10302E-006	0.00000E+000	2.00000E-001	1.41609E-003	7	...........	-327.66
	814	1.63	2.09185E-001	4.09652E-006	0.00000E+000	2.10000E-001	1.47471E-003	7	...........	-327.66
	815	1.632	2.19195E-001	4.09065E-006	0.00000E+000	2.20000E-001	1.45402E-003	7	...........	-327.66
	816	1.634	2.29190E-001	4.08532E-006	0.00000E+000	2.30000E-001	1.41091E-003	7	...........	-327.66
	817	1.636	2.39190E-001	4.08005E-006	0.00000E+000	2.40000E-001	1.41091E-003	7	...........	-327.66
	818	1.638	2.49215E-001	4.07646E-006	0.00000E+000	2.50000E-001	1.36091E-003	7	...........	-327.66
	819	1.64	2.59164E-001	4.07005E-006	0.00000E+000	2.60000E-001	1.42298E-003	7	...........	-327.66
	820	1.642	2.69206E-001	4.06874E-006	0.00000E+000	2.70000E-001	1.46953E-003	7	...........	-327.66
	821	1.644	2.79186E-001	4.06491E-006	0.00000E+000	2.80000E-001	1.36091E-003	7	...........	-327.66
	822	1.646	2.89170E-001	4.06236E-006	0.00000E+000	2.90000E-001	1.43505E-003	7	...........	-327.66
	823	1.648	2.99177E-001	4.05989E-006	0.00000E+000	3.00000E-001	1.42815E-003	7	...........	-327.66
	824	1.65	3.09189E-001	4.06115E-006	0.00000E+000	3.10000E-001	1.44367E-003	7	...........	-327.66
	825	1.652	3.19179E-001	4.05918E-006	0.00000E+000	3.20000E-001	1.45057E-003	7	...........	-327.66
	826	1.654	3.29190E-001	4.06077E-006	0.00000E+000	3.30000E-001	1.37643E-003	7	...........	-327.66
	827	1.656	3.39177E-001	4.06224E-006	0.00000E+000	3.40000E-001	1.39022E-003	7	...........	-327.66
	828	1.658	3.49191E-001	4.06415E-006	0.00000E+000	3.50000E-001	1.37298E-003	7	...........	-327.66
	829	1.66	3.59179E-001	4.06811E-006	0.00000E+000	3.60000E-001	1.43850E-003	7	...........	-327.66
	830	1.662	3.69197E-001	4.07339E-006	0.00000E+000	3.70000E-001	1.37298E-003	7	...........	-327.66
	831	1.664	3.79189E-001	4.07831E-006	0.00000E+000	3.80000E-001	1.39540E-003	7	...........	-327.66
	832	1.666	3.89160E-001	4.08470E-006	0.00000E+000	3.90000E-001	1.43850E-003	7	...........	-327.66
	833	1.668	3.99201E-001	4.09293E-006	0.00000E+000	4.00000E-001	1.45229E-003	7	...........	-327.66
	834	1.67	4.09170E-001	4.10102E-006	0.00000E+000	4.10000E-001	1.44195E-003	7	...........	-327.66
	835	1.672	4.19193E-001	4.11171E-006	0.00000E+000	4.20000E-001	1.45057E-003	7	...........	-327.66
	836	1.674	4.29178E-001	4.12169E-006	0.00000E+000	4.30000E-001	1.39022E-003	7	...........	-327.66
	837	1.676	4.39131E-001	4.13418E-006	0.00000E+000	4.40000E-001	1.42298E-003	7	...........	-327.66
	838	1.678	4.49174E-001	4.14707E-006	0.00000E+000	4.50000E-001	1.40747E-003	7	...........	-327.66
	839	1.68	4.59185E-001	4.16121E-006	0.00000E+000	4.60000E-001	1.46264E-003	7	...........	-327.66
	840	1.682	4.69147E-001	4.17877E-006	0.00000E+000	4.70000E-001	1.44540E-003	7	...........	-327.66
	841	1.684	4.79159E-001	4.19375E-006	0.00000E+000	4.80000E-001	1.38678E-003	7	...........	-327.66
	842	1.686	4.89159E-001	4.21170E-006	0.00000E+000	4.90000E-001	1.37298E-003	7	...........	-327.66
	843	1.688	4.99180E-001	4.23198E-006	0.00000E+000	5.00000E-001	1.36609E-003	7	...........	-327.66
	844	1.69	5.09143E-001	4.25266E-006	0.00000E+000	5.10000E-001	1.37298E-003	7	...........	-327.66
	845	1.692	5.19149E-001	4.27544E-006	0.00000E+000	5.20000E-001	1.46091E-003	7	...........	-327.66
	846	1.694	5.29204E-001	4.29828E-006	0.00000E+000	5.30000E-001	1.44712E-003	7	...........	-327.66
	847	1.696	5.39170E-001	4.32286E-006	0.00000E+000	5.40000E-001	1.42126E-003	7	...........	-327.66
	848	1.698	5.49159E-001	4.34893E-006	0.00000E+000	5.50000E-001	1.41091E-003	7	...........	-327.66
	849	1.7	5.59170E-001	4.37478E-006	0.00000E+000	5.60000E-001	1.44712E-003	7	...........	-327.66
	850	1.702	5.69160E-001	4.40289E-006	0.00000E+000	5.70000E-001	1.41264E-003	7	...........	-327.66
	851	1.704	5.79170E-001	4.43115E-006	0.00000E+000	5.80000E-001	1.44195E-003	7	...........	-327.66
	852	1.706	5.89175E-001	4.46203E-006	0.00000E+000	5.90000E-001	1.38505E-003	7	...........	-327.66
	853	1.708	5.99170E-001	4.49229E-006	0.00000E+000	6.00000E-001	1.42471E-003	7	...........	-327.66
CURVE4	TABLE
	Pt	T	Vf	Im	Vu	Sig	Ach	IERange	Over	Temp
	#	s	V vs. Ref.	A	V	V	V	#	bits	deg C
	854	1.71	5.90738E-001	2.83534E-006	0.00000E+000	5.90000E-001	1.38505E-003	7	...........	-327.66
	855	1.712	5.80764E-001	1.88075E-006	0.00000E+000	5.80000E-001	1.44540E-003	7	...........	-327.66
	856	1.714	5.70738E-001	1.17886E-006	0.00000E+000	5.70000E-001	1.44884E-003	7	...........	-327.66
	857	1.716	5.60745E-001	6.06902E-007	0.00000E+000	5.60000E-001	1.44195E-003	7	...........	-327.66
	858	1.718	5.50764E-001	1.23509E-007	0.00000E+000	5.50000E-001	1.42471E-003	7	...........	-327.66
	859	1.72	5.40787E-001	-2.94479E-007	0.00000E+000	5.40000E-001	1.39540E-003	7	...........	-327.66
	860	1.722	5.30796E-001	-6.57322E-007	0.00000E+000	5.30000E-001	1.42126E-003	7	...........	-327.66
	861	1.724	5.20769E-001	-9.75538E-007	0.00000E+000	5.20000E-001	1.42298E-003	7	...........	-327.66
	862	1.726	5.10763E-001	-1.25749E-006	0.00000E+000	5.10000E-001	1.44540E-003	7	...........	-327.66
	863	1.728	5.00798E-001	-1.50683E-006	0.00000E+000	5.00000E-001	1.41091E-003	7	...........	-327.66
	864	1.73	4.90754E-001	-1.72659E-006	0.00000E+000	4.90000E-001	1.36609E-003	7	...........	-327.66
	865	1.732	4.80746E-001	-1.92374E-006	0.00000E+000	4.80000E-001	1.42815E-003	7	...........	-327.66
	866	1.734	4.70770E-001	-2.09783E-006	0.00000E+000	4.70000E-001	1.44884E-003	7	...........	-327.66
	867	1.736	4.60770E-001	-2.25540E-006	0.00000E+000	4.60000E-001	1.42643E-003	7	...........	-327.66
	868	1.738	4.50816E-001	-2.39544E-006	0.00000E+000	4.50000E-001	1.38678E-003	7	...........	-327.66
	869	1.74	4.40744E-001	-2.52266E-006	0.00000E+000	4.40000E-001	1.41264E-003	7	...........	-327.66
	870	1.742	4.30757E-001	-2.63654E-006	0.00000E+000	4.30000E-001	1.40574E-003	7	...........	-327.66
	871	1.744	4.20817E-001	-2.73976E-006	0.00000E+000	4.20000E-001	1.42126E-003	7	...........	-327.66
	872	1.746	4.10776E-001	-2.83358E-006	0.00000E+000	4.10000E-001	1.42471E-003	7	...........	-327.66
	873	1.748	4.00788E-001	-2.92004E-006	0.00000E+000	4.00000E-001	1.44884E-003	7	...........	-327.66
	874	1.75	3.90780E-001	-2.99892E-006	0.00000E+000	3.90000E-001	1.45229E-003	7	...........	-327.66
	875	1.752	3.80785E-001	-3.07056E-006	0.00000E+000	3.80000E-001	1.42815E-003	7	...........	-327.66
	876	1.754	3.70805E-001	-3.13621E-006	0.00000E+000	3.70000E-001	1.40229E-003	7	...........	-327.66
	877	1.756	3.60771E-001	-3.19763E-006	0.00000E+000	3.60000E-001	1.36264E-003	7	...........	-327.66
	878	1.758	3.50820E-001	-3.25466E-006	0.00000E+000	3.50000E-001	1.40229E-003	7	...........	-327.66
	879	1.76	3.40810E-001	-3.30760E-006	0.00000E+000	3.40000E-001	1.35574E-003	7	...........	-327.66
	880	1.762	3.30803E-001	-3.35605E-006	0.00000E+000	3.30000E-001	1.46436E-003	7	...........	-327.66
	881	1.764	3.20776E-001	-3.40390E-006	0.00000E+000	3.20000E-001	1.39540E-003	7	...........	-327.66
	882	1.766	3.10780E-001	-3.44762E-006	0.00000E+000	3.10000E-001	1.43160E-003	7	...........	-327.66
	883	1.768	3.00794E-001	-3.48948E-006	0.00000E+000	3.00000E-001	1.42643E-003	7	...........	-327.66
	884	1.77	2.90790E-001	-3.52871E-006	0.00000E+000	2.90000E-001	1.42643E-003	7	...........	-327.66
	885	1.772	2.80791E-001	-3.56449E-006	0.00000E+000	2.80000E-001	1.40574E-003	7	...........	-327.66
	886	1.774	2.70845E-001	-3.60029E-006	0.00000E+000	2.70000E-001	1.35574E-003	7	...........	-327.66
	887	1.776	2.60782E-001	-3.63414E-006	0.00000E+000	2.60000E-001	1.41609E-003	7	...........	-327.66
	888	1.778	2.50803E-001	-3.66430E-006	0.00000E+000	2.50000E-001	1.36264E-003	7	...........	-327.66
	889	1.78	2.40794E-001	-3.69596E-006	0.00000E+000	2.40000E-001	1.38850E-003	7	...........	-327.66
	890	1.782	2.30789E-001	-3.72638E-006	0.00000E+000	2.30000E-001	1.42471E-003	7	...........	-327.66
	891	1.784	2.20810E-001	-3.75516E-006	0.00000E+000	2.20000E-001	1.43333E-003	7	...........	-327.66
	892	1.786	2.10776E-001	-3.78235E-006	0.00000E+000	2.10000E-001	1.45229E-003	7	...........	-327.66
	893	1.788	2.00814E-001	-3.80901E-006	0.00000E+000	2.00000E-001	1.41609E-003	7	...........	-327.66
	894	1.79	1.90865E-001	-3.83388E-006	0.00000E+000	1.90000E-001	1.44884E-003	7	...........	-327.66
	895	1.792	1.80822E-001	-3.85912E-006	0.00000E+000	1.80000E-001	1.39540E-003	7	...........	-327.66
	896	1.794	1.70847E-001	-3.88273E-006	0.00000E+000	1.70000E-001	1.40402E-003	7	...........	-327.66
	897	1.796	1.60795E-001	-3.90695E-006	0.00000E+000	1.60000E-001	1.35919E-003	7	...........	-327.66
	898	1.798	1.50844E-001	-3.92732E-006	0.00000E+000	1.50000E-001	1.45574E-003	7	...........	-327.66
	899	1.8	1.40896E-001	-3.95031E-006	0.00000E+000	1.40000E-001	1.41953E-003	7	...........	-327.66
	900	1.802	1.30841E-001	-3.97045E-006	0.00000E+000	1.30000E-001	1.38160E-003	7	...........	-327.66