File: Test_Data_Files/20250424_M_CHI105_12,5umAu_E000_PBSarg_CV5000.DTA
EXPLAIN
TAG	CV
TITLE	LABEL	Cyclic Voltammetry	Test &Identifier
DATE	LABEL	4/24/2025	Date
TIME	LABEL	13:30:35	Time
NOTES	NOTES	3	&Notes...

PSTAT	PSTAT	IFC1010-32247	Potentiostat
VINIT	POTEN	0.00000E+000	T	Initial &E (V)
VLIMIT1	POTEN	-6.00000E-001	F	Scan Limit &1 (V)
VLIMIT2	POTEN	8.00000E-001	F	Scan Limit &2 (V)
VFINAL	POTEN	0.00000E+000	T	Final &E (V)
SCANRATE	QUANT	4.99999E+003	&Scan Rate (mV/s)
STEPSIZE	QUANT	1.00000E+001	St&ep Size (mV)
CYCLES	IQUANT	3	C&ycles (#)
IMODE	SELECTOR	1	I/E Range &Mode
IRANGE	QUANT	1.00000E-006	&Max Current (mA)
AREA	QUANT	1.00000E+000	Electrode &Area (cm^2)
ELECTRODETYPE	SELECTOR	0	Electrode Type
STRIPPING	TOGGLE	F	Used for Stripping
CONDIT	TWOPARAM	F	1.50000E+001	0.00000E+000	Conditionin&g	Time(s)	E(V)
DELAY	TWOPARAM	T	1.50000E+001	0.00000E+000	Init. De&lay	Time(s)	Stab.(mV/s)
EQDELAY	QUANT	0.00000E+000	Equil. &Time (s)
IRCOMP	SELECTOR	0	IRCom&p
PFCOR	QUANT	5.00000E+001	PF Corr. (ohm)
SAMPLINGMODE	SELECTOR	2	Sampling &Mode
OCVCURVE	TABLE	58
	Pt	T	Vf	Vm	Ach	Over	Temp
	#	s	V vs. Ref.	V	V	bits	deg C
	0	0.258333	7.69332E-001	7.69332E-001	0.00000E+000	...........	1367.65
	1	0.516667	7.69333E-001	7.69391E-001	0.00000E+000	...........	1367.41
	2	0.775	7.69340E-001	7.69443E-001	0.00000E+000	...........	1367.22
	3	1.03333	7.69363E-001	7.69683E-001	0.00000E+000	...........	1367.22
	4	1.29167	7.69417E-001	7.69800E-001	0.00000E+000	...........	1367.22
	5	1.55	7.69512E-001	7.69964E-001	0.00000E+000	...........	1367.57
	6	1.80833	7.69642E-001	7.70062E-001	0.00000E+000	...........	1367.57
	7	2.06667	7.69783E-001	7.70106E-001	0.00000E+000	...........	1367.57
	8	2.325	7.69913E-001	7.70135E-001	0.00000E+000	...........	1367.57
	9	2.58333	7.70015E-001	7.70171E-001	0.00000E+000	...........	1367.65
	10	2.84167	7.70087E-001	7.70280E-001	0.00000E+000	...........	1367.65
	11	3.1	7.70142E-001	7.70256E-001	0.00000E+000	...........	1367.65
	12	3.35833	7.70188E-001	7.70208E-001	0.00000E+000	...........	1367.65
	13	3.61667	7.70220E-001	7.70197E-001	0.00000E+000	...........	1367.65
	14	3.875	7.70232E-001	7.70266E-001	0.00000E+000	...........	1367.65
	15	4.13333	7.70235E-001	7.70439E-001	0.00000E+000	...........	1367.65
	16	4.39167	7.70258E-001	7.70571E-001	0.00000E+000	...........	1367.65
	17	4.65	7.70324E-001	7.70840E-001	0.00000E+000	...........	1367.65
	18	4.90833	7.70442E-001	7.71009E-001	0.00000E+000	...........	1367.65
	19	5.16667	7.70602E-001	7.71061E-001	0.00000E+000	...........	1367.65
	20	5.425	7.70775E-001	7.71176E-001	0.00000E+000	...........	1367.65
	21	5.68333	7.70931E-001	7.71280E-001	0.00000E+000	...........	1367.65
	22	5.94167	7.71059E-001	7.71312E-001	0.00000E+000	...........	1367.65
	23	6.2	7.71165E-001	7.71525E-001	0.00000E+000	...........	1367.65
	24	6.45833	7.71267E-001	7.71832E-001	0.00000E+000	...........	1367.65
	25	6.71667	7.71397E-001	7.72114E-001	0.00000E+000	...........	1367.65
	26	6.975	7.71579E-001	7.72341E-001	0.00000E+000	...........	1367.65
	27	7.23333	7.71808E-001	7.72522E-001	0.00000E+000	...........	1367.65
	28	7.49167	7.72053E-001	7.72676E-001	0.00000E+000	...........	1367.65
	29	7.75	7.72282E-001	7.72813E-001	0.00000E+000	...........	1367.65
	30	8.00833	7.72483E-001	7.73001E-001	0.00000E+000	...........	1367.65
	31	8.26667	7.72656E-001	7.73044E-001	0.00000E+000	...........	1367.65
	32	8.525	7.72807E-001	7.73114E-001	0.00000E+000	...........	1367.47
	33	8.78333	7.72932E-001	7.73198E-001	0.00000E+000	...........	1367.40
	34	9.04167	7.73033E-001	7.73263E-001	0.00000E+000	...........	1367.40
	35	9.3	7.73114E-001	7.73280E-001	0.00000E+000	...........	1367.40
	36	9.5583	7.73181E-001	7.73277E-001	0.00000E+000	...........	1367.57
	37	9.8167	7.73230E-001	7.73237E-001	0.00000E+000	...........	1367.57
	38	10.075	7.73258E-001	7.73326E-001	0.00000E+000	...........	1367.57
	39	10.3333	7.73274E-001	7.73413E-001	0.00000E+000	...........	1367.57
	40	10.5917	7.73296E-001	7.73503E-001	0.00000E+000	...........	1367.65
	41	10.85	7.73343E-001	7.73645E-001	0.00000E+000	...........	1367.65
	42	11.1083	7.73415E-001	7.73655E-001	0.00000E+000	...........	1367.65
	43	11.3667	7.73498E-001	7.73558E-001	0.00000E+000	...........	1367.65
	44	11.625	7.73563E-001	7.73480E-001	0.00000E+000	...........	1367.65
	45	11.8833	7.73584E-001	7.73458E-001	0.00000E+000	...........	1367.65
	46	12.1417	7.73560E-001	7.73370E-001	0.00000E+000	...........	1367.65
	47	12.4	7.73512E-001	7.73470E-001	0.00000E+000	...........	1367.65
	48	12.6583	7.73469E-001	7.73546E-001	0.00000E+000	...........	1367.65
	49	12.9167	7.73456E-001	7.73643E-001	0.00000E+000	...........	1367.65
	50	13.175	7.73484E-001	7.73712E-001	0.00000E+000	...........	1367.65
	51	13.4333	7.73546E-001	7.73806E-001	0.00000E+000	...........	1367.65
	52	13.6917	7.73621E-001	7.73704E-001	0.00000E+000	...........	1367.65
	53	13.95	7.73688E-001	7.73780E-001	0.00000E+000	...........	1367.65
	54	14.2083	7.73731E-001	7.73787E-001	0.00000E+000	...........	1367.65
	55	14.4667	7.73756E-001	7.73889E-001	0.00000E+000	...........	1367.65
	56	14.725	7.73785E-001	7.74128E-001	0.00000E+000	...........	1367.65
	57	14.9833	7.73843E-001	7.74207E-001	0.00000E+000	...........	1367.65
EOC	QUANT	0.7738429	Open Circuit (V)
PSTATMODEL	IQUANT	64	Pstat Model
PSTATSECTION	LABEL	IFC1010-32247	Pstat Section
PSTATSERIALNO	LABEL	32247	Pstat Serial Number
CTRLMODE	IQUANT	1	Control Mode
ELECTROMETER	IQUANT	0	RE=0 or CS=1
IESTAB	IQUANT	2	I/E Stability
CASPEED	IQUANT	4	Control Amp Speed
CONVENTION	IQUANT	1	Current Convention
ICHRANGE	IQUANT	2	Ich Range
ICHRANGEMODE	TOGGLE	F	Ich Auto Range
ICHOFFSETENABLE	TOGGLE	F	Ich Offset Enable
ICHOFFSET	QUANT	0	Ich Offset (V)
ICHFILTER	IQUANT	3	Ich Filter
VCHRANGE	IQUANT	2	Vch Range
VCHRANGEMODE	TOGGLE	F	Vch Auto Range
VCHOFFSETENABLE	TOGGLE	F	Vch Offset Enable
VCHOFFSET	QUANT	0	Vch Offset (V)
VCHFILTER	IQUANT	3	Vch Filter
IERANGELOWERLIMIT	IQUANT	4	I/E Range Lower Limit
IERANGEMODE	TOGGLE	F	I/E AutoRange
IERANGE	IQUANT	4	I/E Range
ACHSELECT	IQUANT	0	Ach Select
ACHRANGE	IQUANT	2	Ach Range
ACHOFFSETENABLE	TOGGLE	F	Ach Offset Enable
ACHOFFSET	QUANT	0	Ach Offset (V)
ACHFILTER	IQUANT	1	Ach Filter
SENSECABLEID	IQUANT	14	Sense Cable ID
PWRCABLEID	IQUANT	14	Power Cable ID
DCCALDATE	LABEL	11/18/2024	DC Calibration Date
ACCALDATE	LABEL	4/18/2022	AC Calibration Date
FRAMEWORKVERSION	LABEL	7.10.3	Framework Version
INSTRUMENTVERSION	LABEL	4.91	Instrument Version
COMMVERSION	LABEL	3.10	Communications Version
CPUPLDVERSION	LABEL	2.22	CPU PLD Version
CTRLPLDVERSION	LABEL	0.00	CTRL PLD Version
PSTATPLDVERSION	LABEL	0.00	PSTAT PLD Version
CURVE1	TABLE
	Pt	T	Vf	Im	Vu	Sig	Ach	IERange	Over	Temp
	#	s	V vs. Ref.	A	V	V	V	#	bits	deg C
	0	0.002	7.73929E-001	-1.58098E-012	0.00000E+000	7.73851E-001	0.00000E+000	4	...........	1367.57
	1	0.004	7.64998E-001	-1.50966E-011	0.00000E+000	7.63853E-001	0.00000E+000	4	...........	1367.57
	2	0.006	7.55103E-001	-3.10938E-011	0.00000E+000	7.53856E-001	0.00000E+000	4	...........	1367.57
	3	0.008	7.45125E-001	-4.75329E-011	0.00000E+000	7.43859E-001	0.00000E+000	4	...........	1367.57
	4	0.01	7.35122E-001	-6.41533E-011	0.00000E+000	7.33861E-001	0.00000E+000	4	...........	1367.57
	5	0.012	7.25131E-001	-8.12893E-011	0.00000E+000	7.23864E-001	0.00000E+000	4	...........	1367.57
	6	0.014	7.15133E-001	-9.90853E-011	0.00000E+000	7.13866E-001	0.00000E+000	4	...........	1367.57
	7	0.016	7.05086E-001	-1.18301E-010	0.00000E+000	7.03819E-001	0.00000E+000	4	...........	1367.57
	8	0.018	6.95074E-001	-1.39032E-010	0.00000E+000	6.93821E-001	0.00000E+000	4	...........	1367.57
	9	0.02	6.85071E-001	-1.61757E-010	0.00000E+000	6.83824E-001	0.00000E+000	4	...........	1367.57
	10	0.022	6.75084E-001	-1.86570E-010	0.00000E+000	6.73826E-001	0.00000E+000	4	...........	1367.57
	11	0.024	6.65075E-001	-2.13054E-010	0.00000E+000	6.63829E-001	0.00000E+000	4	...........	1367.57
	12	0.026	6.55082E-001	-2.40831E-010	0.00000E+000	6.53832E-001	0.00000E+000	4	...........	1367.57
	13	0.028	6.45084E-001	-2.69426E-010	0.00000E+000	6.43834E-001	0.00000E+000	4	...........	1367.57
	14	0.03	6.35093E-001	-2.98392E-010	0.00000E+000	6.33837E-001	0.00000E+000	4	...........	1367.57
	15	0.032	6.25092E-001	-3.27273E-010	0.00000E+000	6.23839E-001	0.00000E+000	4	...........	1367.57
	16	0.034	6.15084E-001	-3.55986E-010	0.00000E+000	6.13842E-001	0.00000E+000	4	...........	1367.57
	17	0.036	6.05102E-001	-3.84091E-010	0.00000E+000	6.03844E-001	0.00000E+000	4	...........	1367.57
	18	0.038	5.95101E-001	-4.11641E-010	0.00000E+000	5.93847E-001	0.00000E+000	4	...........	1367.57
	19	0.04	5.85099E-001	-4.38686E-010	0.00000E+000	5.83850E-001	0.00000E+000	4	...........	1367.57
	20	0.042	5.75109E-001	-4.64975E-010	0.00000E+000	5.73852E-001	0.00000E+000	4	...........	1367.57
	21	0.044	5.65131E-001	-4.90729E-010	0.00000E+000	5.63855E-001	0.00000E+000	4	...........	1367.57
	22	0.046	5.55107E-001	-5.15757E-010	0.00000E+000	5.53857E-001	0.00000E+000	4	...........	1367.57
	23	0.048	5.45107E-001	-5.39998E-010	0.00000E+000	5.43860E-001	0.00000E+000	4	...........	1367.57
	24	0.05	5.35121E-001	-5.63737E-010	0.00000E+000	5.33862E-001	0.00000E+000	4	...........	1367.57
	25	0.052	5.25095E-001	-5.87032E-010	0.00000E+000	5.23865E-001	0.00000E+000	4	...........	1367.57
	26	0.054	5.15118E-001	-6.10188E-010	0.00000E+000	5.13867E-001	0.00000E+000	4	...........	1367.57
	27	0.056	5.05081E-001	-6.33497E-010	0.00000E+000	5.03820E-001	0.00000E+000	4	...........	1367.57
	28	0.058	4.95075E-001	-6.56667E-010	0.00000E+000	4.93823E-001	0.00000E+000	4	...........	1367.57
	29	0.06	4.85060E-001	-6.80094E-010	0.00000E+000	4.83825E-001	0.00000E+000	4	...........	1367.57
	30	0.062	4.75068E-001	-7.03933E-010	0.00000E+000	4.73828E-001	0.00000E+000	4	...........	1367.57
	31	0.064	4.65070E-001	-7.28194E-010	0.00000E+000	4.63830E-001	0.00000E+000	4	...........	1367.57
	32	0.066	4.55055E-001	-7.53092E-010	0.00000E+000	4.53833E-001	0.00000E+000	4	...........	1367.57
	33	0.068	4.45062E-001	-7.78355E-010	0.00000E+000	4.43835E-001	0.00000E+000	4	...........	1367.57
	34	0.07	4.35069E-001	-8.03879E-010	0.00000E+000	4.33838E-001	0.00000E+000	4	...........	1367.57
	35	0.072	4.25087E-001	-8.29718E-010	0.00000E+000	4.23840E-001	0.00000E+000	4	...........	1367.57
	36	0.074	4.15064E-001	-8.55942E-010	0.00000E+000	4.13843E-001	0.00000E+000	4	...........	1367.57
	37	0.076	4.05068E-001	-8.82554E-010	0.00000E+000	4.03846E-001	0.00000E+000	4	...........	1367.57
	38	0.078	3.95065E-001	-9.09659E-010	0.00000E+000	3.93848E-001	0.00000E+000	4	...........	1367.57
	39	0.08	3.85066E-001	-9.37576E-010	0.00000E+000	3.83851E-001	0.00000E+000	4	...........	1367.57
	40	0.082	3.75076E-001	-9.65358E-010	0.00000E+000	3.73853E-001	0.00000E+000	4	...........	1367.57
	41	0.084	3.65059E-001	-9.93594E-010	0.00000E+000	3.63856E-001	0.00000E+000	4	...........	1367.57
	42	0.086	3.55065E-001	-1.02275E-009	0.00000E+000	3.53858E-001	0.00000E+000	4	...........	1367.57
	43	0.088	3.45062E-001	-1.05202E-009	0.00000E+000	3.43861E-001	0.00000E+000	4	...........	1367.57
	44	0.09	3.35083E-001	-1.08152E-009	0.00000E+000	3.33863E-001	0.00000E+000	4	...........	1367.57
	45	0.092	3.25074E-001	-1.11098E-009	0.00000E+000	3.23866E-001	0.00000E+000	4	...........	1367.57
	46	0.094	3.15071E-001	-1.14026E-009	0.00000E+000	3.13869E-001	0.00000E+000	4	...........	1367.57
	47	0.096	3.05029E-001	-1.16952E-009	0.00000E+000	3.03821E-001	0.00000E+000	4	...........	1367.57
	48	0.098	2.95041E-001	-1.19750E-009	0.00000E+000	2.93824E-001	0.00000E+000	4	...........	1367.57
	49	0.1	2.85031E-001	-1.22455E-009	0.00000E+000	2.83826E-001	0.00000E+000	4	...........	1367.57
	50	0.102	2.75031E-001	-1.25021E-009	0.00000E+000	2.73829E-001	0.00000E+000	4	...........	1367.57
	51	0.104	2.65029E-001	-1.27464E-009	0.00000E+000	2.63831E-001	0.00000E+000	4	...........	1367.57
	52	0.106	2.55020E-001	-1.29756E-009	0.00000E+000	2.53834E-001	0.00000E+000	4	...........	1367.57
	53	0.108	2.45055E-001	-1.31879E-009	0.00000E+000	2.43837E-001	0.00000E+000	4	...........	1367.57
	54	0.11	2.35049E-001	-1.33853E-009	0.00000E+000	2.33839E-001	0.00000E+000	4	...........	1367.57
	55	0.112	2.25049E-001	-1.35672E-009	0.00000E+000	2.23842E-001	0.00000E+000	4	...........	1367.57
	56	0.114	2.15037E-001	-1.37338E-009	0.00000E+000	2.13844E-001	0.00000E+000	4	...........	1367.57
	57	0.116	2.05045E-001	-1.38829E-009	0.00000E+000	2.03847E-001	0.00000E+000	4	...........	1367.57
	58	0.118	1.95059E-001	-1.40155E-009	0.00000E+000	1.93849E-001	0.00000E+000	4	...........	1367.57
	59	0.12	1.85050E-001	-1.41322E-009	0.00000E+000	1.83852E-001	0.00000E+000	4	...........	1367.57
	60	0.122	1.75062E-001	-1.42322E-009	0.00000E+000	1.73854E-001	0.00000E+000	4	...........	1367.57
	61	0.124	1.65055E-001	-1.43175E-009	0.00000E+000	1.63857E-001	0.00000E+000	4	...........	1367.57
	62	0.126	1.55054E-001	-1.43866E-009	0.00000E+000	1.53860E-001	0.00000E+000	4	...........	1367.57
	63	0.128	1.45063E-001	-1.44404E-009	0.00000E+000	1.43862E-001	0.00000E+000	4	...........	1367.57
	64	0.13	1.35069E-001	-1.44789E-009	0.00000E+000	1.33865E-001	0.00000E+000	4	...........	1367.57
	65	0.132	1.25065E-001	-1.45033E-009	0.00000E+000	1.23867E-001	0.00000E+000	4	...........	1367.57
	66	0.134	1.15015E-001	-1.45176E-009	0.00000E+000	1.13820E-001	0.00000E+000	4	...........	1367.57
	67	0.136	1.05013E-001	-1.45204E-009	0.00000E+000	1.03822E-001	0.00000E+000	4	...........	1367.57
	68	0.138	9.50074E-002	-1.45262E-009	0.00000E+000	9.38250E-002	0.00000E+000	4	...........	1367.57
	69	0.14	8.50310E-002	-1.45173E-009	0.00000E+000	8.38275E-002	0.00000E+000	4	...........	1367.57
	70	0.142	7.50198E-002	-1.44927E-009	0.00000E+000	7.38301E-002	0.00000E+000	4	...........	1367.57
	71	0.144	6.50272E-002	-1.44562E-009	0.00000E+000	6.38326E-002	0.00000E+000	4	...........	1367.57
	72	0.146	5.50304E-002	-1.44099E-009	0.00000E+000	5.38352E-002	0.00000E+000	4	...........	1367.57
	73	0.148	4.50150E-002	-1.43597E-009	0.00000E+000	4.38378E-002	0.00000E+000	4	...........	1367.57
	74	0.15	3.50249E-002	-1.43080E-009	0.00000E+000	3.38403E-002	0.00000E+000	4	...........	1367.57
	75	0.152	2.50231E-002	-1.42440E-009	0.00000E+000	2.38429E-002	0.00000E+000	4	...........	1367.57
	76	0.154	1.50288E-002	-1.41753E-009	0.00000E+000	1.38454E-002	0.00000E+000	4	...........	1367.57
	77	0.156	5.03877E-003	-1.41024E-009	0.00000E+000	3.84799E-003	0.00000E+000	4	...........	1367.57
	78	0.158	-4.96821E-003	-1.40251E-009	0.00000E+000	-6.14946E-003	0.00000E+000	4	...........	1367.57
	79	0.16	-1.49947E-002	-1.39483E-009	0.00000E+000	-1.61469E-002	0.00000E+000	4	...........	1367.57
	80	0.162	-2.49966E-002	-1.38709E-009	0.00000E+000	-2.61443E-002	0.00000E+000	4	...........	1367.57
	81	0.164	-3.49925E-002	-1.37985E-009	0.00000E+000	-3.61418E-002	0.00000E+000	4	...........	1367.57
	82	0.166	-4.49758E-002	-1.37257E-009	0.00000E+000	-4.61392E-002	0.00000E+000	4	...........	1367.57
	83	0.168	-5.49726E-002	-1.36604E-009	0.00000E+000	-5.61367E-002	0.00000E+000	4	...........	1367.57
	84	0.17	-6.49770E-002	-1.36013E-009	0.00000E+000	-6.61341E-002	0.00000E+000	4	...........	1367.57
	85	0.172	-7.49679E-002	-1.35465E-009	0.00000E+000	-7.61315E-002	0.00000E+000	4	...........	1367.57
	86	0.174	-8.50155E-002	-1.34962E-009	0.00000E+000	-8.61790E-002	0.00000E+000	4	...........	1367.57
	87	0.176	-9.50166E-002	-1.34547E-009	0.00000E+000	-9.61764E-002	0.00000E+000	4	...........	1367.57
	88	0.178	-1.05020E-001	-1.34210E-009	0.00000E+000	-1.06174E-001	0.00000E+000	4	...........	1367.57
	89	0.18	-1.15008E-001	-1.33961E-009	0.00000E+000	-1.16171E-001	0.00000E+000	4	...........	1367.57
	90	0.182	-1.24990E-001	-1.33816E-009	0.00000E+000	-1.26169E-001	0.00000E+000	4	...........	1367.57
	91	0.184	-1.34988E-001	-1.33770E-009	0.00000E+000	-1.36166E-001	0.00000E+000	4	...........	1367.57
	92	0.186	-1.45002E-001	-1.33856E-009	0.00000E+000	-1.46164E-001	0.00000E+000	4	...........	1367.57
	93	0.188	-1.54999E-001	-1.34020E-009	0.00000E+000	-1.56161E-001	0.00000E+000	4	...........	1367.57
	94	0.19	-1.65006E-001	-1.34281E-009	0.00000E+000	-1.66158E-001	0.00000E+000	4	...........	1367.57
	95	0.192	-1.75003E-001	-1.34613E-009	0.00000E+000	-1.76156E-001	0.00000E+000	4	...........	1367.57
	96	0.194	-1.84989E-001	-1.35053E-009	0.00000E+000	-1.86153E-001	0.00000E+000	4	...........	1367.57
	97	0.196	-1.94985E-001	-1.35596E-009	0.00000E+000	-1.96151E-001	0.00000E+000	4	...........	1367.57
	98	0.198	-2.04982E-001	-1.36266E-009	0.00000E+000	-2.06148E-001	0.00000E+000	4	...........	1367.57
	99	0.2	-2.14973E-001	-1.37161E-009	0.00000E+000	-2.16146E-001	0.00000E+000	4	...........	1367.57
	100	0.202	-2.24970E-001	-1.38156E-009	0.00000E+000	-2.26143E-001	0.00000E+000	4	...........	1367.57
	101	0.204	-2.34977E-001	-1.39174E-009	0.00000E+000	-2.36141E-001	0.00000E+000	4	...........	1367.57
	102	0.206	-2.44987E-001	-1.40223E-009	0.00000E+000	-2.46138E-001	0.00000E+000	4	...........	1367.57
	103	0.208	-2.54973E-001	-1.41361E-009	0.00000E+000	-2.56135E-001	0.00000E+000	4	...........	1367.57
	104	0.21	-2.64973E-001	-1.42564E-009	0.00000E+000	-2.66133E-001	0.00000E+000	4	...........	1367.57
	105	0.212	-2.74968E-001	-1.43795E-009	0.00000E+000	-2.76130E-001	0.00000E+000	4	...........	1367.57
	106	0.214	-2.85002E-001	-1.45083E-009	0.00000E+000	-2.86178E-001	0.00000E+000	4	...........	1367.57
	107	0.216	-2.95016E-001	-1.46370E-009	0.00000E+000	-2.96175E-001	0.00000E+000	4	...........	1367.57
	108	0.218	-3.05010E-001	-1.47637E-009	0.00000E+000	-3.06173E-001	0.00000E+000	4	...........	1367.57
	109	0.22	-3.14985E-001	-1.48873E-009	0.00000E+000	-3.16170E-001	0.00000E+000	4	...........	1367.57
	110	0.222	-3.25002E-001	-1.50045E-009	0.00000E+000	-3.26168E-001	0.00000E+000	4	...........	1367.57
	111	0.224	-3.34996E-001	-1.51165E-009	0.00000E+000	-3.36165E-001	0.00000E+000	4	...........	1367.57
	112	0.226	-3.45004E-001	-1.52195E-009	0.00000E+000	-3.46162E-001	0.00000E+000	4	...........	1367.57
	113	0.228	-3.54991E-001	-1.53134E-009	0.00000E+000	-3.56160E-001	0.00000E+000	4	...........	1367.57
	114	0.23	-3.64990E-001	-1.53941E-009	0.00000E+000	-3.66157E-001	0.00000E+000	4	...........	1367.57
	115	0.232	-3.74983E-001	-1.54651E-009	0.00000E+000	-3.76155E-001	0.00000E+000	4	...........	1367.57
	116	0.234	-3.84987E-001	-1.55275E-009	0.00000E+000	-3.86152E-001	0.00000E+000	4	...........	1367.57
	117	0.236	-3.94965E-001	-1.55744E-009	0.00000E+000	-3.96150E-001	0.00000E+000	4	...........	1367.57
	118	0.238	-4.04969E-001	-1.56055E-009	0.00000E+000	-4.06147E-001	0.00000E+000	4	...........	1367.57
	119	0.24	-4.14978E-001	-1.56179E-009	0.00000E+000	-4.16144E-001	0.00000E+000	4	...........	1367.57
	120	0.242	-4.24980E-001	-1.56203E-009	0.00000E+000	-4.26142E-001	0.00000E+000	4	...........	1367.57
	121	0.244	-4.34988E-001	-1.56018E-009	0.00000E+000	-4.36139E-001	0.00000E+000	4	...........	1367.57
	122	0.246	-4.44973E-001	-1.55586E-009	0.00000E+000	-4.46137E-001	0.00000E+000	4	...........	1367.57
	123	0.248	-4.54985E-001	-1.54989E-009	0.00000E+000	-4.56134E-001	0.00000E+000	4	...........	1367.57
	124	0.25	-4.64983E-001	-1.54156E-009	0.00000E+000	-4.66132E-001	0.00000E+000	4	...........	1367.57
	125	0.252	-4.75028E-001	-1.53222E-009	0.00000E+000	-4.76179E-001	0.00000E+000	4	...........	1367.57
	126	0.254	-4.85014E-001	-1.52176E-009	0.00000E+000	-4.86177E-001	0.00000E+000	4	...........	1367.57
	127	0.256	-4.95001E-001	-1.50961E-009	0.00000E+000	-4.96174E-001	0.00000E+000	4	...........	1367.57
	128	0.258	-5.05016E-001	-1.49627E-009	0.00000E+000	-5.06171E-001	0.00000E+000	4	...........	1367.57
	129	0.26	-5.14998E-001	-1.48220E-009	0.00000E+000	-5.16169E-001	0.00000E+000	4	...........	1367.57
	130	0.262	-5.24980E-001	-1.46891E-009	0.00000E+000	-5.26166E-001	0.00000E+000	4	...........	1367.57
	131	0.264	-5.34983E-001	-1.45370E-009	0.00000E+000	-5.36164E-001	0.00000E+000	4	...........	1367.57
	132	0.266	-5.44998E-001	-1.43769E-009	0.00000E+000	-5.46161E-001	0.00000E+000	4	...........	1367.57
	133	0.268	-5.55000E-001	-1.42166E-009	0.00000E+000	-5.56159E-001	0.00000E+000	4	...........	1367.57
	134	0.27	-5.64991E-001	-1.40661E-009	0.00000E+000	-5.66156E-001	0.00000E+000	4	...........	1367.57
	135	0.272	-5.74967E-001	-1.39145E-009	0.00000E+000	-5.76154E-001	0.00000E+000	4	...........	1367.57
	136	0.274	-5.84971E-001	-1.38396E-009	0.00000E+000	-5.86151E-001	0.00000E+000	4	...........	1367.57
	137	0.276	-5.94986E-001	-1.36773E-009	0.00000E+000	-5.96148E-001	0.00000E+000	4	...........	1367.57
	138	0.278	-5.87316E-001	-1.30714E-009	0.00000E+000	-5.86151E-001	0.00000E+000	4	...........	1367.57
	139	0.28	-5.77333E-001	-1.23823E-009	0.00000E+000	-5.76154E-001	0.00000E+000	4	...........	1367.57
	140	0.282	-5.67343E-001	-1.16954E-009	0.00000E+000	-5.66156E-001	0.00000E+000	4	...........	1367.57
	141	0.284	-5.57339E-001	-1.10144E-009	0.00000E+000	-5.56159E-001	0.00000E+000	4	...........	1367.57
	142	0.286	-5.47329E-001	-1.03427E-009	0.00000E+000	-5.46161E-001	0.00000E+000	4	...........	1367.57
	143	0.288	-5.37337E-001	-9.69021E-010	0.00000E+000	-5.36164E-001	0.00000E+000	4	...........	1367.57
	144	0.29	-5.27332E-001	-9.05531E-010	0.00000E+000	-5.26166E-001	0.00000E+000	4	...........	1367.57
	145	0.292	-5.17347E-001	-8.42525E-010	0.00000E+000	-5.16169E-001	0.00000E+000	4	...........	1367.57
	146	0.294	-5.07351E-001	-7.81330E-010	0.00000E+000	-5.06171E-001	0.00000E+000	4	...........	1367.57
	147	0.296	-4.97350E-001	-7.21995E-010	0.00000E+000	-4.96174E-001	0.00000E+000	4	...........	1367.57
	148	0.298	-4.87348E-001	-6.63930E-010	0.00000E+000	-4.86177E-001	0.00000E+000	4	...........	1367.57
	149	0.3	-4.77363E-001	-6.07548E-010	0.00000E+000	-4.76179E-001	0.00000E+000	4	...........	1367.57
	150	0.302	-4.67330E-001	-5.52505E-010	0.00000E+000	-4.66132E-001	0.00000E+000	4	...........	1367.57
	151	0.304	-4.57320E-001	-4.99230E-010	0.00000E+000	-4.56134E-001	0.00000E+000	4	...........	1367.57
	152	0.306	-4.47318E-001	-4.47930E-010	0.00000E+000	-4.46137E-001	0.00000E+000	4	...........	1367.57
	153	0.308	-4.37336E-001	-3.97553E-010	0.00000E+000	-4.36139E-001	0.00000E+000	4	...........	1367.57
	154	0.31	-4.27316E-001	-3.48652E-010	0.00000E+000	-4.26142E-001	0.00000E+000	4	...........	1367.57
	155	0.312	-4.17324E-001	-3.01819E-010	0.00000E+000	-4.16144E-001	0.00000E+000	4	...........	1367.57
	156	0.314	-4.07311E-001	-2.55856E-010	0.00000E+000	-4.06147E-001	0.00000E+000	4	...........	1367.57
	157	0.316	-3.97317E-001	-2.11054E-010	0.00000E+000	-3.96150E-001	0.00000E+000	4	...........	1367.57
	158	0.318	-3.87324E-001	-1.67261E-010	0.00000E+000	-3.86152E-001	0.00000E+000	4	...........	1367.57
	159	0.32	-3.77317E-001	-1.24734E-010	0.00000E+000	-3.76155E-001	0.00000E+000	4	...........	1367.57
	160	0.322	-3.67330E-001	-8.34054E-011	0.00000E+000	-3.66157E-001	0.00000E+000	4	...........	1367.57
	161	0.324	-3.57326E-001	-4.30938E-011	0.00000E+000	-3.56160E-001	0.00000E+000	4	...........	1367.57
	162	0.326	-3.47341E-001	-3.61214E-012	0.00000E+000	-3.46162E-001	0.00000E+000	4	...........	1367.57
	163	0.328	-3.37330E-001	3.47533E-011	0.00000E+000	-3.36165E-001	0.00000E+000	4	...........	1367.57
	164	0.33	-3.27330E-001	7.21188E-011	0.00000E+000	-3.26168E-001	0.00000E+000	4	...........	1367.57
	165	0.332	-3.17325E-001	1.08348E-010	0.00000E+000	-3.16170E-001	0.00000E+000	4	...........	1367.57
	166	0.334	-3.07326E-001	1.43518E-010	0.00000E+000	-3.06173E-001	0.00000E+000	4	...........	1367.57
	167	0.336	-2.97335E-001	1.77773E-010	0.00000E+000	-2.96175E-001	0.00000E+000	4	...........	1367.57
	168	0.338	-2.87342E-001	2.11011E-010	0.00000E+000	-2.86178E-001	0.00000E+000	4	...........	1367.57
	169	0.34	-2.77302E-001	2.43195E-010	0.00000E+000	-2.76130E-001	0.00000E+000	4	...........	1367.57
	170	0.342	-2.67294E-001	2.74045E-010	0.00000E+000	-2.66133E-001	0.00000E+000	4	...........	1367.57
	171	0.344	-2.57310E-001	3.03649E-010	0.00000E+000	-2.56135E-001	0.00000E+000	4	...........	1367.57
	172	0.346	-2.47310E-001	3.32159E-010	0.00000E+000	-2.46138E-001	0.00000E+000	4	...........	1367.57
	173	0.348	-2.37301E-001	3.59278E-010	0.00000E+000	-2.36141E-001	0.00000E+000	4	...........	1367.57
	174	0.35	-2.27299E-001	3.84983E-010	0.00000E+000	-2.26143E-001	0.00000E+000	4	...........	1367.57
	175	0.352	-2.17297E-001	4.09493E-010	0.00000E+000	-2.16146E-001	0.00000E+000	4	...........	1367.57
	176	0.354	-2.07313E-001	4.32788E-010	0.00000E+000	-2.06148E-001	0.00000E+000	4	...........	1367.57
	177	0.356	-1.97309E-001	4.54675E-010	0.00000E+000	-1.96151E-001	0.00000E+000	4	...........	1367.57
	178	0.358	-1.87321E-001	4.75397E-010	0.00000E+000	-1.86153E-001	0.00000E+000	4	...........	1367.57
	179	0.36	-1.77309E-001	4.94873E-010	0.00000E+000	-1.76156E-001	0.00000E+000	4	...........	1367.57
	180	0.362	-1.67305E-001	5.13085E-010	0.00000E+000	-1.66158E-001	0.00000E+000	4	...........	1367.57
	181	0.364	-1.57330E-001	5.29964E-010	0.00000E+000	-1.56161E-001	0.00000E+000	4	...........	1367.57
	182	0.366	-1.47327E-001	5.45482E-010	0.00000E+000	-1.46164E-001	0.00000E+000	4	...........	1367.57
	183	0.368	-1.37331E-001	5.59998E-010	0.00000E+000	-1.36166E-001	0.00000E+000	4	...........	1367.57
	184	0.37	-1.27306E-001	5.73422E-010	0.00000E+000	-1.26169E-001	0.00000E+000	4	...........	1367.57
	185	0.372	-1.17338E-001	5.85813E-010	0.00000E+000	-1.16171E-001	0.00000E+000	4	...........	1367.57
	186	0.374	-1.07330E-001	5.97488E-010	0.00000E+000	-1.06174E-001	0.00000E+000	4	...........	1367.57
	187	0.376	-9.73359E-002	6.08204E-010	0.00000E+000	-9.61764E-002	0.00000E+000	4	...........	1367.57
	188	0.378	-8.73475E-002	6.18343E-010	0.00000E+000	-8.61790E-002	0.00000E+000	4	...........	1367.57
	189	0.38	-7.72965E-002	6.27788E-010	0.00000E+000	-7.61315E-002	0.00000E+000	4	...........	1367.57
	190	0.382	-6.72895E-002	6.36459E-010	0.00000E+000	-6.61341E-002	0.00000E+000	4	...........	1367.57
	191	0.384	-5.72927E-002	6.44360E-010	0.00000E+000	-5.61367E-002	0.00000E+000	4	...........	1367.57
	192	0.386	-4.72883E-002	6.51709E-010	0.00000E+000	-4.61392E-002	0.00000E+000	4	...........	1367.57
	193	0.388	-3.73084E-002	6.58689E-010	0.00000E+000	-3.61418E-002	0.00000E+000	4	...........	1367.57
	194	0.39	-2.73099E-002	6.65474E-010	0.00000E+000	-2.61443E-002	0.00000E+000	4	...........	1367.57
	195	0.392	-1.73123E-002	6.71947E-010	0.00000E+000	-1.61469E-002	0.00000E+000	4	...........	1367.57
	196	0.394	-7.29851E-003	6.78414E-010	0.00000E+000	-6.14946E-003	0.00000E+000	4	...........	1367.57
	197	0.396	2.71271E-003	6.84459E-010	0.00000E+000	3.84799E-003	0.00000E+000	4	...........	1367.57
	198	0.398	1.27112E-002	6.89046E-010	0.00000E+000	1.38454E-002	0.00000E+000	4	...........	1367.57
	199	0.4	2.27004E-002	6.94669E-010	0.00000E+000	2.38429E-002	0.00000E+000	4	...........	1367.57
	200	0.402	3.27150E-002	7.00961E-010	0.00000E+000	3.38403E-002	0.00000E+000	4	...........	1367.57
	201	0.404	4.26999E-002	7.07414E-010	0.00000E+000	4.38378E-002	0.00000E+000	4	...........	1367.57
	202	0.406	5.27188E-002	7.14298E-010	0.00000E+000	5.38352E-002	0.00000E+000	4	...........	1367.57
	203	0.408	6.27028E-002	7.21502E-010	0.00000E+000	6.38326E-002	0.00000E+000	4	...........	1367.57
	204	0.41	7.27030E-002	7.29236E-010	0.00000E+000	7.38301E-002	0.00000E+000	4	...........	1367.57
	205	0.412	8.27126E-002	7.37131E-010	0.00000E+000	8.38275E-002	0.00000E+000	4	...........	1367.57
	206	0.414	9.26967E-002	7.45406E-010	0.00000E+000	9.38250E-002	0.00000E+000	4	...........	1367.57
	207	0.416	1.02693E-001	7.54077E-010	0.00000E+000	1.03822E-001	0.00000E+000	4	...........	1367.57
	208	0.418	1.12685E-001	7.63457E-010	0.00000E+000	1.13820E-001	0.00000E+000	4	...........	1367.57
	209	0.42	1.22718E-001	7.73632E-010	0.00000E+000	1.23867E-001	0.00000E+000	4	...........	1367.57
	210	0.422	1.32734E-001	7.84264E-010	0.00000E+000	1.33865E-001	0.00000E+000	4	...........	1367.57
	211	0.424	1.42748E-001	7.95550E-010	0.00000E+000	1.43862E-001	0.00000E+000	4	...........	1367.57
	212	0.426	1.52725E-001	8.07584E-010	0.00000E+000	1.53860E-001	0.00000E+000	4	...........	1367.57
	213	0.428	1.62711E-001	8.20318E-010	0.00000E+000	1.63857E-001	0.00000E+000	4	...........	1367.57
	214	0.43	1.72724E-001	8.33785E-010	0.00000E+000	1.73854E-001	0.00000E+000	4	...........	1367.57
	215	0.432	1.82726E-001	8.48018E-010	0.00000E+000	1.83852E-001	0.00000E+000	4	...........	1367.57
	216	0.434	1.92727E-001	8.63077E-010	0.00000E+000	1.93849E-001	0.00000E+000	4	...........	1367.57
	217	0.436	2.02717E-001	8.78919E-010	0.00000E+000	2.03847E-001	0.00000E+000	4	...........	1367.57
	218	0.438	2.12708E-001	8.96335E-010	0.00000E+000	2.13844E-001	0.00000E+000	4	...........	1367.57
	219	0.44	2.22707E-001	9.15494E-010	0.00000E+000	2.23842E-001	0.00000E+000	4	...........	1367.57
	220	0.442	2.32715E-001	9.36658E-010	0.00000E+000	2.33839E-001	0.00000E+000	4	...........	1367.57
	221	0.444	2.42699E-001	9.60256E-010	0.00000E+000	2.43837E-001	0.00000E+000	4	...........	1367.57
	222	0.446	2.52685E-001	9.86375E-010	0.00000E+000	2.53834E-001	0.00000E+000	4	...........	1367.57
	223	0.448	2.62680E-001	1.01397E-009	0.00000E+000	2.63831E-001	0.00000E+000	4	...........	1367.57
	224	0.45	2.72688E-001	1.04145E-009	0.00000E+000	2.73829E-001	0.00000E+000	4	...........	1367.57
	225	0.452	2.82694E-001	1.06779E-009	0.00000E+000	2.83826E-001	0.00000E+000	4	...........	1367.57
	226	0.454	2.92701E-001	1.09285E-009	0.00000E+000	2.93824E-001	0.00000E+000	4	...........	1367.57
	227	0.456	3.02680E-001	1.11698E-009	0.00000E+000	3.03821E-001	0.00000E+000	4	...........	1367.57
	228	0.458	3.12729E-001	1.14054E-009	0.00000E+000	3.13869E-001	0.00000E+000	4	...........	1367.57
	229	0.46	3.22741E-001	1.16312E-009	0.00000E+000	3.23866E-001	0.00000E+000	4	...........	1367.57
	230	0.462	3.32735E-001	1.18436E-009	0.00000E+000	3.33863E-001	0.00000E+000	4	...........	1367.57
	231	0.464	3.42719E-001	1.20448E-009	0.00000E+000	3.43861E-001	0.00000E+000	4	...........	1367.57
	232	0.466	3.52714E-001	1.22337E-009	0.00000E+000	3.53858E-001	0.00000E+000	4	...........	1367.57
	233	0.468	3.62714E-001	1.24031E-009	0.00000E+000	3.63856E-001	0.00000E+000	4	...........	1367.57
	234	0.47	3.72727E-001	1.25616E-009	0.00000E+000	3.73853E-001	0.00000E+000	4	...........	1367.57
	235	0.472	3.82725E-001	1.27056E-009	0.00000E+000	3.83851E-001	0.00000E+000	4	...........	1367.57
	236	0.474	3.92712E-001	1.28376E-009	0.00000E+000	3.93848E-001	0.00000E+000	4	...........	1367.57
	237	0.476	4.02726E-001	1.29581E-009	0.00000E+000	4.03846E-001	0.00000E+000	4	...........	1367.57
	238	0.478	4.12727E-001	1.30604E-009	0.00000E+000	4.13843E-001	0.00000E+000	4	...........	1367.57
	239	0.48	4.22725E-001	1.31493E-009	0.00000E+000	4.23840E-001	0.00000E+000	4	...........	1367.57
	240	0.482	4.32722E-001	1.32229E-009	0.00000E+000	4.33838E-001	0.00000E+000	4	...........	1367.57
	241	0.484	4.42709E-001	1.32770E-009	0.00000E+000	4.43835E-001	0.00000E+000	4	...........	1367.57
	242	0.486	4.52721E-001	1.33117E-009	0.00000E+000	4.53833E-001	0.00000E+000	4	...........	1367.57
	243	0.488	4.62717E-001	1.33262E-009	0.00000E+000	4.63830E-001	0.00000E+000	4	...........	1367.57
	244	0.49	4.72718E-001	1.33212E-009	0.00000E+000	4.73828E-001	0.00000E+000	4	...........	1367.57
	245	0.492	4.82720E-001	1.32964E-009	0.00000E+000	4.83825E-001	0.00000E+000	4	...........	1367.57
	246	0.494	4.92718E-001	1.32558E-009	0.00000E+000	4.93823E-001	0.00000E+000	4	...........	1367.57
	247	0.496	5.02739E-001	1.32007E-009	0.00000E+000	5.03820E-001	0.00000E+000	4	...........	1367.57
	248	0.498	5.12768E-001	1.31334E-009	0.00000E+000	5.13867E-001	0.00000E+000	4	...........	1367.57
	249	0.5	5.22752E-001	1.30513E-009	0.00000E+000	5.23865E-001	0.00000E+000	4	...........	1367.57
	250	0.502	5.32771E-001	1.29599E-009	0.00000E+000	5.33862E-001	0.00000E+000	4	...........	1367.57
	251	0.504	5.42764E-001	1.28650E-009	0.00000E+000	5.43860E-001	0.00000E+000	4	...........	1367.57
	252	0.506	5.52762E-001	1.27728E-009	0.00000E+000	5.53857E-001	0.00000E+000	4	...........	1367.57
	253	0.508	5.62776E-001	1.26822E-009	0.00000E+000	5.63855E-001	0.00000E+000	4	...........	1367.57
	254	0.51	5.72766E-001	1.25768E-009	0.00000E+000	5.73852E-001	0.00000E+000	4	...........	1367.57
	255	0.512	5.82758E-001	1.24619E-009	0.00000E+000	5.83850E-001	0.00000E+000	4	...........	1367.57
	256	0.514	5.92759E-001	1.23432E-009	0.00000E+000	5.93847E-001	0.00000E+000	4	...........	1367.57
	257	0.516	6.02744E-001	1.22211E-009	0.00000E+000	6.03844E-001	0.00000E+000	4	...........	1367.57
	258	0.518	6.12747E-001	1.20982E-009	0.00000E+000	6.13842E-001	0.00000E+000	4	...........	1367.57
	259	0.52	6.22765E-001	1.19781E-009	0.00000E+000	6.23839E-001	0.00000E+000	4	...........	1367.57
	260	0.522	6.32754E-001	1.18580E-009	0.00000E+000	6.33837E-001	0.00000E+000	4	...........	1367.57
	261	0.524	6.42745E-001	1.17438E-009	0.00000E+000	6.43834E-001	0.00000E+000	4	...........	1367.57
	262	0.526	6.52748E-001	1.16303E-009	0.00000E+000	6.53832E-001	0.00000E+000	4	...........	1367.57
	263	0.528	6.62731E-001	1.15118E-009	0.00000E+000	6.63829E-001	0.00000E+000	4	...........	1367.57
	264	0.53	6.72746E-001	1.13862E-009	0.00000E+000	6.73826E-001	0.00000E+000	4	...........	1367.57
	265	0.532	6.82744E-001	1.12556E-009	0.00000E+000	6.83824E-001	0.00000E+000	4	...........	1367.57
	266	0.534	6.92749E-001	1.11190E-009	0.00000E+000	6.93821E-001	0.00000E+000	4	...........	1367.57
	267	0.536	7.02747E-001	1.09811E-009	0.00000E+000	7.03819E-001	0.00000E+000	4	...........	1367.57
	268	0.538	7.12779E-001	1.08399E-009	0.00000E+000	7.13866E-001	0.00000E+000	4	...........	1367.57
	269	0.54	7.22786E-001	1.06990E-009	0.00000E+000	7.23864E-001	0.00000E+000	4	...........	1367.57
	270	0.542	7.32784E-001	1.05585E-009	0.00000E+000	7.33861E-001	0.00000E+000	4	...........	1367.57
	271	0.544	7.42783E-001	1.04205E-009	0.00000E+000	7.43859E-001	0.00000E+000	4	...........	1367.57
	272	0.546	7.52763E-001	1.02887E-009	0.00000E+000	7.53856E-001	0.00000E+000	4	...........	1367.57
	273	0.548	7.62773E-001	1.01639E-009	0.00000E+000	7.63853E-001	0.00000E+000	4	...........	1367.57
	274	0.55	7.72762E-001	1.00459E-009	0.00000E+000	7.73851E-001	0.00000E+000	4	...........	1367.57
	275	0.552	7.82786E-001	9.93633E-010	0.00000E+000	7.83848E-001	0.00000E+000	4	...........	1367.57
	276	0.554	7.92776E-001	9.84038E-010	0.00000E+000	7.93846E-001	0.00000E+000	4	...........	1367.57
	277	0.556	8.02755E-001	9.75995E-010	0.00000E+000	8.03843E-001	0.00000E+000	4	...........	1367.57
CURVE2	TABLE
	Pt	T	Vf	Im	Vu	Sig	Ach	IERange	Over	Temp
	#	s	V vs. Ref.	A	V	V	V	#	bits	deg C
	278	0.558	7.91707E-001	9.16635E-010	0.00000E+000	7.89997E-001	0.00000E+000	4	...........	1367.57
	279	0.56	7.81252E-001	8.50114E-010	0.00000E+000	7.79999E-001	0.00000E+000	4	...........	1367.57
	280	0.562	7.71267E-001	7.84423E-010	0.00000E+000	7.70002E-001	0.00000E+000	4	...........	1367.57
	281	0.564	7.61270E-001	7.19114E-010	0.00000E+000	7.60004E-001	0.00000E+000	4	...........	1367.57
	282	0.566	7.51268E-001	6.54748E-010	0.00000E+000	7.50007E-001	0.00000E+000	4	...........	1367.57
	283	0.568	7.41258E-001	5.91703E-010	0.00000E+000	7.40010E-001	0.00000E+000	4	...........	1367.57
	284	0.57	7.31286E-001	5.29989E-010	0.00000E+000	7.30012E-001	0.00000E+000	4	...........	1367.57
	285	0.572	7.21276E-001	4.69513E-010	0.00000E+000	7.20015E-001	0.00000E+000	4	...........	1367.57
	286	0.574	7.11287E-001	4.10496E-010	0.00000E+000	7.10017E-001	0.00000E+000	4	...........	1367.57
	287	0.576	7.01288E-001	3.52881E-010	0.00000E+000	7.00020E-001	0.00000E+000	4	...........	1367.57
	288	0.578	6.91273E-001	2.96303E-010	0.00000E+000	6.90022E-001	0.00000E+000	4	...........	1367.57
	289	0.58	6.81292E-001	2.40649E-010	0.00000E+000	6.80025E-001	0.00000E+000	4	...........	1367.57
	290	0.582	6.71233E-001	1.85705E-010	0.00000E+000	6.69977E-001	0.00000E+000	4	...........	1367.57
	291	0.584	6.61237E-001	1.31785E-010	0.00000E+000	6.59980E-001	0.00000E+000	4	...........	1367.57
	292	0.586	6.51246E-001	7.88865E-011	0.00000E+000	6.49983E-001	0.00000E+000	4	...........	1367.57
	293	0.588	6.41246E-001	2.74106E-011	0.00000E+000	6.39985E-001	0.00000E+000	4	...........	1367.57
	294	0.59	6.31248E-001	-2.23629E-011	0.00000E+000	6.29988E-001	0.00000E+000	4	...........	1367.57
	295	0.592	6.21241E-001	-7.01618E-011	0.00000E+000	6.19990E-001	0.00000E+000	4	...........	1367.57
	296	0.594	6.11251E-001	-1.15649E-010	0.00000E+000	6.09993E-001	0.00000E+000	4	...........	1367.57
	297	0.596	6.01243E-001	-1.59085E-010	0.00000E+000	5.99995E-001	0.00000E+000	4	...........	1367.57
	298	0.598	5.91261E-001	-2.00544E-010	0.00000E+000	5.89998E-001	0.00000E+000	4	...........	1367.57
	299	0.6	5.81257E-001	-2.40318E-010	0.00000E+000	5.80001E-001	0.00000E+000	4	...........	1367.57
	300	0.602	5.71262E-001	-2.78760E-010	0.00000E+000	5.70003E-001	0.00000E+000	4	...........	1367.57
	301	0.604	5.61252E-001	-3.15777E-010	0.00000E+000	5.60006E-001	0.00000E+000	4	...........	1367.57
	302	0.606	5.51259E-001	-3.51902E-010	0.00000E+000	5.50008E-001	0.00000E+000	4	...........	1367.57
	303	0.608	5.41258E-001	-3.87069E-010	0.00000E+000	5.40011E-001	0.00000E+000	4	...........	1367.57
	304	0.61	5.31264E-001	-4.21644E-010	0.00000E+000	5.30013E-001	0.00000E+000	4	...........	1367.57
	305	0.612	5.21250E-001	-4.55737E-010	0.00000E+000	5.20016E-001	0.00000E+000	4	...........	1367.57
	306	0.614	5.11254E-001	-4.89621E-010	0.00000E+000	5.10018E-001	0.00000E+000	4	...........	1367.57
	307	0.616	5.01272E-001	-5.23273E-010	0.00000E+000	5.00021E-001	0.00000E+000	4	...........	1367.57
	308	0.618	4.91290E-001	-5.56757E-010	0.00000E+000	4.90024E-001	0.00000E+000	4	...........	1367.57
	309	0.62	4.81228E-001	-5.90596E-010	0.00000E+000	4.79976E-001	0.00000E+000	4	...........	1367.57
	310	0.622	4.71210E-001	-6.24596E-010	0.00000E+000	4.69979E-001	0.00000E+000	4	...........	1367.57
	311	0.624	4.61223E-001	-6.58834E-010	0.00000E+000	4.59981E-001	0.00000E+000	4	...........	1367.57
	312	0.626	4.51223E-001	-6.93466E-010	0.00000E+000	4.49984E-001	0.00000E+000	4	...........	1367.57
	313	0.628	4.41232E-001	-7.28670E-010	0.00000E+000	4.39986E-001	0.00000E+000	4	...........	1367.57
	314	0.63	4.31218E-001	-7.64313E-010	0.00000E+000	4.29989E-001	0.00000E+000	4	...........	1367.57
	315	0.632	4.21219E-001	-8.00239E-010	0.00000E+000	4.19991E-001	0.00000E+000	4	...........	1367.57
	316	0.634	4.11233E-001	-8.36259E-010	0.00000E+000	4.09994E-001	0.00000E+000	4	...........	1367.57
	317	0.636	4.01218E-001	-8.72163E-010	0.00000E+000	3.99997E-001	0.00000E+000	4	...........	1367.57
	318	0.638	3.91211E-001	-9.07446E-010	0.00000E+000	3.89999E-001	0.00000E+000	4	...........	1367.57
	319	0.64	3.81232E-001	-9.41622E-010	0.00000E+000	3.80002E-001	0.00000E+000	4	...........	1367.57
	320	0.642	3.71232E-001	-9.74183E-010	0.00000E+000	3.70004E-001	0.00000E+000	4	...........	1367.57
	321	0.644	3.61229E-001	-1.00493E-009	0.00000E+000	3.60007E-001	0.00000E+000	4	...........	1367.57
	322	0.646	3.51229E-001	-1.03394E-009	0.00000E+000	3.50009E-001	0.00000E+000	4	...........	1367.57
	323	0.648	3.41241E-001	-1.06098E-009	0.00000E+000	3.40012E-001	0.00000E+000	4	...........	1367.57
	324	0.65	3.31235E-001	-1.08652E-009	0.00000E+000	3.30014E-001	0.00000E+000	4	...........	1367.57
	325	0.652	3.21253E-001	-1.11045E-009	0.00000E+000	3.20017E-001	0.00000E+000	4	...........	1367.57
	326	0.654	3.11257E-001	-1.13270E-009	0.00000E+000	3.10020E-001	0.00000E+000	4	...........	1367.57
	327	0.656	3.01255E-001	-1.15325E-009	0.00000E+000	3.00022E-001	0.00000E+000	4	...........	1367.57
	328	0.658	2.91265E-001	-1.17205E-009	0.00000E+000	2.90025E-001	0.00000E+000	4	...........	1367.57
	329	0.66	2.81207E-001	-1.18948E-009	0.00000E+000	2.79977E-001	0.00000E+000	4	...........	1367.57
	330	0.662	2.71213E-001	-1.20485E-009	0.00000E+000	2.69980E-001	0.00000E+000	4	...........	1367.57
	331	0.664	2.61228E-001	-1.21837E-009	0.00000E+000	2.59982E-001	0.00000E+000	4	...........	1367.57
	332	0.666	2.51223E-001	-1.23038E-009	0.00000E+000	2.49985E-001	0.00000E+000	4	...........	1367.57
	333	0.668	2.41232E-001	-1.24068E-009	0.00000E+000	2.39988E-001	0.00000E+000	4	...........	1367.57
	334	0.67	2.31227E-001	-1.24946E-009	0.00000E+000	2.29990E-001	0.00000E+000	4	...........	1367.57
	335	0.672	2.21226E-001	-1.25655E-009	0.00000E+000	2.19993E-001	0.00000E+000	4	...........	1367.57
	336	0.674	2.11231E-001	-1.26217E-009	0.00000E+000	2.09995E-001	0.00000E+000	4	...........	1367.57
[...]
	641	1.284	-3.88156E-002	-1.13142E-009	0.00000E+000	-3.99908E-002	0.00000E+000	4	...........	1367.57
	642	1.286	-4.87963E-002	-1.12743E-009	0.00000E+000	-4.99882E-002	0.00000E+000	4	...........	1367.57
	643	1.288	-5.88058E-002	-1.12405E-009	0.00000E+000	-5.99857E-002	0.00000E+000	4	...........	1367.57
	644	1.29	-6.88035E-002	-1.12132E-009	0.00000E+000	-6.99831E-002	0.00000E+000	4	...........	1367.57
	645	1.292	-7.87859E-002	-1.11960E-009	0.00000E+000	-7.99806E-002	0.00000E+000	4	...........	1367.57
	646	1.294	-8.87962E-002	-1.11898E-009	0.00000E+000	-8.99780E-002	0.00000E+000	4	...........	1367.57
	647	1.296	-9.87812E-002	-1.11934E-009	0.00000E+000	-9.99754E-002	0.00000E+000	4	...........	1367.57
	648	1.298	-1.08818E-001	-1.12087E-009	0.00000E+000	-1.10023E-001	0.00000E+000	4	...........	1367.57
	649	1.3	-1.18818E-001	-1.12301E-009	0.00000E+000	-1.20020E-001	0.00000E+000	4	...........	1367.57
	650	1.302	-1.28828E-001	-1.12607E-009	0.00000E+000	-1.30018E-001	0.00000E+000	4	...........	1367.57
	651	1.304	-1.38812E-001	-1.12959E-009	0.00000E+000	-1.40015E-001	0.00000E+000	4	...........	1367.57
	652	1.306	-1.48816E-001	-1.13398E-009	0.00000E+000	-1.50013E-001	0.00000E+000	4	...........	1367.57
	653	1.308	-1.58807E-001	-1.13911E-009	0.00000E+000	-1.60010E-001	0.00000E+000	4	...........	1367.57
	654	1.31	-1.68809E-001	-1.14510E-009	0.00000E+000	-1.70007E-001	0.00000E+000	4	...........	1367.57
	655	1.312	-1.78823E-001	-1.15222E-009	0.00000E+000	-1.80005E-001	0.00000E+000	4	...........	1367.57
	656	1.314	-1.88804E-001	-1.16025E-009	0.00000E+000	-1.90002E-001	0.00000E+000	4	...........	1367.57
	657	1.316	-1.98794E-001	-1.16877E-009	0.00000E+000	-2.00000E-001	0.00000E+000	4	...........	1367.57
	658	1.318	-2.08801E-001	-1.17756E-009	0.00000E+000	-2.09997E-001	0.00000E+000	4	...........	1367.57
	659	1.32	-2.18803E-001	-1.18691E-009	0.00000E+000	-2.19995E-001	0.00000E+000	4	...........	1367.57
	660	1.322	-2.28806E-001	-1.19669E-009	0.00000E+000	-2.29992E-001	0.00000E+000	4	...........	1367.57
	661	1.324	-2.38797E-001	-1.20687E-009	0.00000E+000	-2.39990E-001	0.00000E+000	4	...........	1367.57
	662	1.326	-2.48797E-001	-1.21715E-009	0.00000E+000	-2.49987E-001	0.00000E+000	4	...........	1367.57
	663	1.328	-2.58802E-001	-1.22744E-009	0.00000E+000	-2.59984E-001	0.00000E+000	4	...........	1367.57
	664	1.33	-2.68811E-001	-1.23804E-009	0.00000E+000	-2.69982E-001	0.00000E+000	4	...........	1367.57
	665	1.332	-2.78789E-001	-1.24884E-009	0.00000E+000	-2.79979E-001	0.00000E+000	4	...........	1367.57
	666	1.334	-2.88806E-001	-1.26018E-009	0.00000E+000	-2.89977E-001	0.00000E+000	4	...........	1367.57
	667	1.336	-2.98808E-001	-1.27088E-009	0.00000E+000	-2.99974E-001	0.00000E+000	4	...........	1367.57
	668	1.338	-3.08851E-001	-1.28050E-009	0.00000E+000	-3.10022E-001	0.00000E+000	4	...........	1367.57
	669	1.34	-3.18834E-001	-1.28940E-009	0.00000E+000	-3.20019E-001	0.00000E+000	4	...........	1367.57
	670	1.342	-3.28827E-001	-1.29760E-009	0.00000E+000	-3.30017E-001	0.00000E+000	4	...........	1367.57
	671	1.344	-3.38838E-001	-1.30511E-009	0.00000E+000	-3.40014E-001	0.00000E+000	4	...........	1367.57
	672	1.346	-3.48843E-001	-1.31164E-009	0.00000E+000	-3.50011E-001	0.00000E+000	4	...........	1367.57
	673	1.348	-3.58846E-001	-1.31721E-009	0.00000E+000	-3.60009E-001	0.00000E+000	4	...........	1367.57
	674	1.35	-3.68838E-001	-1.32227E-009	0.00000E+000	-3.70006E-001	0.00000E+000	4	...........	1367.57
	675	1.352	-3.78835E-001	-1.32700E-009	0.00000E+000	-3.80004E-001	0.00000E+000	4	...........	1367.57
	676	1.354	-3.88843E-001	-1.33192E-009	0.00000E+000	-3.90001E-001	0.00000E+000	4	...........	1367.57
	677	1.356	-3.98835E-001	-1.33530E-009	0.00000E+000	-3.99999E-001	0.00000E+000	4	...........	1367.57
	678	1.358	-4.08848E-001	-1.33669E-009	0.00000E+000	-4.09996E-001	0.00000E+000	4	...........	1367.57
	679	1.36	-4.18818E-001	-1.33698E-009	0.00000E+000	-4.19994E-001	0.00000E+000	4	...........	1367.57
	680	1.362	-4.28840E-001	-1.33524E-009	0.00000E+000	-4.29991E-001	0.00000E+000	4	...........	1367.57
	681	1.364	-4.38844E-001	-1.33264E-009	0.00000E+000	-4.39988E-001	0.00000E+000	4	...........	1367.57
	682	1.366	-4.48840E-001	-1.32922E-009	0.00000E+000	-4.49986E-001	0.00000E+000	4	...........	1367.57
	683	1.368	-4.58841E-001	-1.32462E-009	0.00000E+000	-4.59983E-001	0.00000E+000	4	...........	1367.57
	684	1.37	-4.68829E-001	-1.31964E-009	0.00000E+000	-4.69981E-001	0.00000E+000	4	...........	1367.57
	685	1.372	-4.78833E-001	-1.31441E-009	0.00000E+000	-4.79978E-001	0.00000E+000	4	...........	1367.57
	686	1.374	-4.88835E-001	-1.30765E-009	0.00000E+000	-4.89976E-001	0.00000E+000	4	...........	1367.57
	687	1.376	-4.98836E-001	-1.29988E-009	0.00000E+000	-4.99973E-001	0.00000E+000	4	...........	1367.57
	688	1.378	-5.08861E-001	-1.29191E-009	0.00000E+000	-5.10020E-001	0.00000E+000	4	...........	1367.57
	689	1.38	-5.18845E-001	-1.28353E-009	0.00000E+000	-5.20018E-001	0.00000E+000	4	...........	1367.57
	690	1.382	-5.28834E-001	-1.27443E-009	0.00000E+000	-5.30015E-001	0.00000E+000	4	...........	1367.57
	691	1.384	-5.38846E-001	-1.26501E-009	0.00000E+000	-5.40013E-001	0.00000E+000	4	...........	1367.57
	692	1.386	-5.48845E-001	-1.25572E-009	0.00000E+000	-5.50010E-001	0.00000E+000	4	...........	1367.57
	693	1.388	-5.58840E-001	-1.24576E-009	0.00000E+000	-5.60008E-001	0.00000E+000	4	...........	1367.57
	694	1.39	-5.68847E-001	-1.23621E-009	0.00000E+000	-5.70005E-001	0.00000E+000	4	...........	1367.57
	695	1.392	-5.78836E-001	-1.22574E-009	0.00000E+000	-5.80003E-001	0.00000E+000	4	...........	1367.57
	696	1.394	-5.88838E-001	-1.21509E-009	0.00000E+000	-5.90000E-001	0.00000E+000	4	...........	1367.57
	697	1.396	-5.98834E-001	-1.20452E-009	0.00000E+000	-5.99997E-001	0.00000E+000	4	...........	1367.57
	698	1.398	-5.91181E-001	-1.15148E-009	0.00000E+000	-5.90000E-001	0.00000E+000	4	...........	1367.57
	699	1.4	-5.81169E-001	-1.09057E-009	0.00000E+000	-5.80003E-001	0.00000E+000	4	...........	1367.57
	700	1.402	-5.71174E-001	-1.02930E-009	0.00000E+000	-5.70005E-001	0.00000E+000	4	...........	1367.57
	701	1.404	-5.61168E-001	-9.68647E-010	0.00000E+000	-5.60008E-001	0.00000E+000	4	...........	1367.57
	702	1.406	-5.51183E-001	-9.08701E-010	0.00000E+000	-5.50010E-001	0.00000E+000	4	...........	1367.57
	703	1.408	-5.41185E-001	-8.49749E-010	0.00000E+000	-5.40013E-001	0.00000E+000	4	...........	1367.57
	704	1.41	-5.31176E-001	-7.91894E-010	0.00000E+000	-5.30015E-001	0.00000E+000	4	...........	1367.57
	705	1.412	-5.21174E-001	-7.35041E-010	0.00000E+000	-5.20018E-001	0.00000E+000	4	...........	1367.57
	706	1.414	-5.11191E-001	-6.79701E-010	0.00000E+000	-5.10020E-001	0.00000E+000	4	...........	1367.57
	707	1.416	-5.01169E-001	-6.26216E-010	0.00000E+000	-4.99973E-001	0.00000E+000	4	...........	1367.57
	708	1.418	-4.91155E-001	-5.79638E-010	0.00000E+000	-4.89976E-001	0.00000E+000	4	...........	1367.57
	709	1.42	-4.81159E-001	-5.27720E-010	0.00000E+000	-4.79978E-001	0.00000E+000	4	...........	1367.57
	710	1.422	-4.71174E-001	-4.76854E-010	0.00000E+000	-4.69981E-001	0.00000E+000	4	...........	1367.57
	711	1.424	-4.61176E-001	-4.27244E-010	0.00000E+000	-4.59983E-001	0.00000E+000	4	...........	1367.57
	712	1.426	-4.51188E-001	-3.78882E-010	0.00000E+000	-4.49986E-001	0.00000E+000	4	...........	1367.57
	713	1.428	-4.41193E-001	-3.31559E-010	0.00000E+000	-4.39988E-001	0.00000E+000	4	...........	1367.57
	714	1.43	-4.31181E-001	-2.85536E-010	0.00000E+000	-4.29991E-001	0.00000E+000	4	...........	1367.57
	715	1.432	-4.21184E-001	-2.40768E-010	0.00000E+000	-4.19994E-001	0.00000E+000	4	...........	1367.57
	716	1.434	-4.11184E-001	-1.97309E-010	0.00000E+000	-4.09996E-001	0.00000E+000	4	...........	1367.57
	717	1.436	-4.01190E-001	-1.54862E-010	0.00000E+000	-3.99999E-001	0.00000E+000	4	...........	1367.57
	718	1.438	-3.91189E-001	-1.13343E-010	0.00000E+000	-3.90001E-001	0.00000E+000	4	...........	1367.57
	719	1.44	-3.81187E-001	-7.27085E-011	0.00000E+000	-3.80004E-001	0.00000E+000	4	...........	1367.57
	720	1.442	-3.71192E-001	-3.33997E-011	0.00000E+000	-3.70006E-001	0.00000E+000	4	...........	1367.57
	721	1.444	-3.61205E-001	5.36237E-012	0.00000E+000	-3.60009E-001	0.00000E+000	4	...........	1367.57
	722	1.446	-3.51196E-001	4.27732E-011	0.00000E+000	-3.50011E-001	0.00000E+000	4	...........	1367.57
	723	1.448	-3.41190E-001	7.92123E-011	0.00000E+000	-3.40014E-001	0.00000E+000	4	...........	1367.57
	724	1.45	-3.31185E-001	1.14481E-010	0.00000E+000	-3.30017E-001	0.00000E+000	4	...........	1367.57
	725	1.452	-3.21186E-001	1.48895E-010	0.00000E+000	-3.20019E-001	0.00000E+000	4	...........	1367.57
	726	1.454	-3.11199E-001	1.82544E-010	0.00000E+000	-3.10022E-001	0.00000E+000	4	...........	1367.57
	727	1.456	-3.01151E-001	2.15518E-010	0.00000E+000	-2.99974E-001	0.00000E+000	4	...........	1367.57
	728	1.458	-2.91150E-001	2.47320E-010	0.00000E+000	-2.89977E-001	0.00000E+000	4	...........	1367.57
	729	1.46	-2.81151E-001	2.78077E-010	0.00000E+000	-2.79979E-001	0.00000E+000	4	...........	1367.57
	730	1.462	-2.71160E-001	3.07867E-010	0.00000E+000	-2.69982E-001	0.00000E+000	4	...........	1367.57
	731	1.464	-2.61166E-001	3.36833E-010	0.00000E+000	-2.59984E-001	0.00000E+000	4	...........	1367.57
	732	1.466	-2.51169E-001	3.64700E-010	0.00000E+000	-2.49987E-001	0.00000E+000	4	...........	1367.57
	733	1.468	-2.41181E-001	3.91334E-010	0.00000E+000	-2.39990E-001	0.00000E+000	4	...........	1367.57
	734	1.47	-2.31190E-001	4.16830E-010	0.00000E+000	-2.29992E-001	0.00000E+000	4	...........	1367.57
	735	1.472	-2.21179E-001	4.41201E-010	0.00000E+000	-2.19995E-001	0.00000E+000	4	...........	1367.57
	736	1.474	-2.11174E-001	4.64428E-010	0.00000E+000	-2.09997E-001	0.00000E+000	4	...........	1367.57
	737	1.476	-2.01171E-001	4.86442E-010	0.00000E+000	-2.00000E-001	0.00000E+000	4	...........	1367.57
	738	1.478	-1.91178E-001	5.07148E-010	0.00000E+000	-1.90002E-001	0.00000E+000	4	...........	1367.57
	739	1.48	-1.81209E-001	5.26697E-010	0.00000E+000	-1.80005E-001	0.00000E+000	4	...........	1367.57
	740	1.482	-1.71180E-001	5.45074E-010	0.00000E+000	-1.70007E-001	0.00000E+000	4	...........	1367.57
	741	1.484	-1.61183E-001	5.62170E-010	0.00000E+000	-1.60010E-001	0.00000E+000	4	...........	1367.57
	742	1.486	-1.51189E-001	5.78026E-010	0.00000E+000	-1.50013E-001	0.00000E+000	4	...........	1367.57
	743	1.488	-1.41193E-001	5.92887E-010	0.00000E+000	-1.40015E-001	0.00000E+000	4	...........	1367.57
	744	1.49	-1.31203E-001	6.06678E-010	0.00000E+000	-1.30018E-001	0.00000E+000	4	...........	1367.57
	745	1.492	-1.21202E-001	6.19508E-010	0.00000E+000	-1.20020E-001	0.00000E+000	4	...........	1367.57
	746	1.494	-1.11199E-001	6.31476E-010	0.00000E+000	-1.10023E-001	0.00000E+000	4	...........	1367.57
	747	1.496	-1.01157E-001	6.42578E-010	0.00000E+000	-9.99754E-002	0.00000E+000	4	...........	1367.57
	748	1.498	-9.11579E-002	6.52822E-010	0.00000E+000	-8.99780E-002	0.00000E+000	4	...........	1367.57
	749	1.5	-8.11552E-002	6.62304E-010	0.00000E+000	-7.99806E-002	0.00000E+000	4	...........	1367.57
	750	1.502	-7.11524E-002	6.71100E-010	0.00000E+000	-6.99831E-002	0.00000E+000	4	...........	1367.57
	751	1.504	-6.11760E-002	6.79247E-010	0.00000E+000	-5.99857E-002	0.00000E+000	4	...........	1367.57
	752	1.506	-5.11614E-002	6.86833E-010	0.00000E+000	-4.99882E-002	0.00000E+000	4	...........	1367.57
	753	1.508	-4.11603E-002	6.94035E-010	0.00000E+000	-3.99908E-002	0.00000E+000	4	...........	1367.57
	754	1.51	-3.11745E-002	7.00944E-010	0.00000E+000	-2.99934E-002	0.00000E+000	4	...........	1367.57
	755	1.512	-2.11803E-002	7.07629E-010	0.00000E+000	-1.99959E-002	0.00000E+000	4	...........	1367.57
	756	1.514	-1.11708E-002	7.14120E-010	0.00000E+000	-9.99847E-003	0.00000E+000	4	...........	1367.57
	757	1.516	-1.14597E-003	7.20477E-010	0.00000E+000	-1.02818E-006	0.00000E+000	4	...........	1367.57
	758	1.518	8.83811E-003	7.26496E-010	0.00000E+000	9.99641E-003	0.00000E+000	4	...........	1367.57
	759	1.52	1.88442E-002	7.32596E-010	0.00000E+000	1.99939E-002	0.00000E+000	4	...........	1367.57
	760	1.522	2.88470E-002	7.38819E-010	0.00000E+000	2.99913E-002	0.00000E+000	4	...........	1367.57
	761	1.524	3.88531E-002	7.45482E-010	0.00000E+000	3.99887E-002	0.00000E+000	4	...........	1367.57
	762	1.526	4.88397E-002	7.52664E-010	0.00000E+000	4.99862E-002	0.00000E+000	4	...........	1367.57
	763	1.528	5.88348E-002	7.60445E-010	0.00000E+000	5.99836E-002	0.00000E+000	4	...........	1367.57
	764	1.53	6.88427E-002	7.68375E-010	0.00000E+000	6.99811E-002	0.00000E+000	4	...........	1367.57
	765	1.532	7.88412E-002	7.76601E-010	0.00000E+000	7.99785E-002	0.00000E+000	4	...........	1367.57
	766	1.534	8.88973E-002	7.85369E-010	0.00000E+000	9.00259E-002	0.00000E+000	4	...........	1367.57
	767	1.536	9.88772E-002	7.94360E-010	0.00000E+000	1.00023E-001	0.00000E+000	4	...........	1367.57
	768	1.538	1.08887E-001	8.03819E-010	0.00000E+000	1.10021E-001	0.00000E+000	4	...........	1367.57
	769	1.54	1.18884E-001	8.13686E-010	0.00000E+000	1.20018E-001	0.00000E+000	4	...........	1367.57
	770	1.542	1.28895E-001	8.24137E-010	0.00000E+000	1.30016E-001	0.00000E+000	4	...........	1367.57
	771	1.544	1.38870E-001	8.35355E-010	0.00000E+000	1.40013E-001	0.00000E+000	4	...........	1367.57
	772	1.546	1.48882E-001	8.47477E-010	0.00000E+000	1.50011E-001	0.00000E+000	4	...........	1367.57
	773	1.548	1.58873E-001	8.60168E-010	0.00000E+000	1.60008E-001	0.00000E+000	4	...........	1367.57
	774	1.55	1.68870E-001	8.73400E-010	0.00000E+000	1.70005E-001	0.00000E+000	4	...........	1367.57
	775	1.552	1.78861E-001	8.87222E-010	0.00000E+000	1.80003E-001	0.00000E+000	4	...........	1367.57
	776	1.554	1.88861E-001	9.01845E-010	0.00000E+000	1.90000E-001	0.00000E+000	4	...........	1367.57
	777	1.556	1.98854E-001	9.17287E-010	0.00000E+000	1.99998E-001	0.00000E+000	4	...........	1367.57
	778	1.558	2.08863E-001	9.33930E-010	0.00000E+000	2.09995E-001	0.00000E+000	4	...........	1367.57
	779	1.56	2.18874E-001	9.51927E-010	0.00000E+000	2.19993E-001	0.00000E+000	4	...........	1367.57
	780	1.562	2.28871E-001	9.71347E-010	0.00000E+000	2.29990E-001	0.00000E+000	4	...........	1367.57
	781	1.564	2.38876E-001	9.92414E-010	0.00000E+000	2.39988E-001	0.00000E+000	4	...........	1367.57
	782	1.566	2.48872E-001	1.01561E-009	0.00000E+000	2.49985E-001	0.00000E+000	4	...........	1367.57
	783	1.568	2.58874E-001	1.04083E-009	0.00000E+000	2.59982E-001	0.00000E+000	4	...........	1367.57
	784	1.57	2.68865E-001	1.06704E-009	0.00000E+000	2.69980E-001	0.00000E+000	4	...........	1367.57
	785	1.572	2.78848E-001	1.09274E-009	0.00000E+000	2.79977E-001	0.00000E+000	4	...........	1367.57
	786	1.574	2.88910E-001	1.11764E-009	0.00000E+000	2.90025E-001	0.00000E+000	4	...........	1367.57
	787	1.576	2.98915E-001	1.14128E-009	0.00000E+000	3.00022E-001	0.00000E+000	4	...........	1367.57
	788	1.578	3.08918E-001	1.16389E-009	0.00000E+000	3.10020E-001	0.00000E+000	4	...........	1367.57
	789	1.58	3.18903E-001	1.18509E-009	0.00000E+000	3.20017E-001	0.00000E+000	4	...........	1367.57
	790	1.582	3.28896E-001	1.20532E-009	0.00000E+000	3.30014E-001	0.00000E+000	4	...........	1367.57
	791	1.584	3.38896E-001	1.22557E-009	0.00000E+000	3.40012E-001	0.00000E+000	4	...........	1367.57
	792	1.586	3.48903E-001	1.24447E-009	0.00000E+000	3.50009E-001	0.00000E+000	4	...........	1367.57
	793	1.588	3.58885E-001	1.26289E-009	0.00000E+000	3.60007E-001	0.00000E+000	4	...........	1367.57
	794	1.59	3.68901E-001	1.27929E-009	0.00000E+000	3.70004E-001	0.00000E+000	4	...........	1367.57
	795	1.592	3.78898E-001	1.29412E-009	0.00000E+000	3.80002E-001	0.00000E+000	4	...........	1367.57
	796	1.594	3.88893E-001	1.30787E-009	0.00000E+000	3.89999E-001	0.00000E+000	4	...........	1367.57
	797	1.596	3.98891E-001	1.32066E-009	0.00000E+000	3.99997E-001	0.00000E+000	4	...........	1367.57
	798	1.598	4.08898E-001	1.33254E-009	0.00000E+000	4.09994E-001	0.00000E+000	4	...........	1367.57
	799	1.6	4.18892E-001	1.34315E-009	0.00000E+000	4.19991E-001	0.00000E+000	4	...........	1367.57
	800	1.602	4.28910E-001	1.35197E-009	0.00000E+000	4.29989E-001	0.00000E+000	4	...........	1367.57
	801	1.604	4.38890E-001	1.35868E-009	0.00000E+000	4.39986E-001	0.00000E+000	4	...........	1367.57
	802	1.606	4.48897E-001	1.36347E-009	0.00000E+000	4.49984E-001	0.00000E+000	4	...........	1367.57
	803	1.608	4.58886E-001	1.36705E-009	0.00000E+000	4.59981E-001	0.00000E+000	4	...........	1367.57
	804	1.61	4.68883E-001	1.36845E-009	0.00000E+000	4.69979E-001	0.00000E+000	4	...........	1367.57
	805	1.612	4.78885E-001	1.36796E-009	0.00000E+000	4.79976E-001	0.00000E+000	4	...........	1367.57
	806	1.614	4.88947E-001	1.36579E-009	0.00000E+000	4.90024E-001	0.00000E+000	4	...........	1367.57
	807	1.616	4.98943E-001	1.36129E-009	0.00000E+000	5.00021E-001	0.00000E+000	4	...........	1367.57
	808	1.618	5.08911E-001	1.35505E-009	0.00000E+000	5.10018E-001	0.00000E+000	4	...........	1367.57
	809	1.62	5.18932E-001	1.34890E-009	0.00000E+000	5.20016E-001	0.00000E+000	4	...........	1367.57
	810	1.622	5.28925E-001	1.34115E-009	0.00000E+000	5.30013E-001	0.00000E+000	4	...........	1367.57
	811	1.624	5.38929E-001	1.33224E-009	0.00000E+000	5.40011E-001	0.00000E+000	4	...........	1367.57
	812	1.626	5.48922E-001	1.32268E-009	0.00000E+000	5.50008E-001	0.00000E+000	4	...........	1367.57
	813	1.628	5.58920E-001	1.31229E-009	0.00000E+000	5.60006E-001	0.00000E+000	4	...........	1367.57
	814	1.63	5.68929E-001	1.30178E-009	0.00000E+000	5.70003E-001	0.00000E+000	4	...........	1367.57
	815	1.632	5.78927E-001	1.28992E-009	0.00000E+000	5.80001E-001	0.00000E+000	4	...........	1367.57
	816	1.634	5.88930E-001	1.27770E-009	0.00000E+000	5.89998E-001	0.00000E+000	4	...........	1367.57
	817	1.636	5.98906E-001	1.26533E-009	0.00000E+000	5.99995E-001	0.00000E+000	4	...........	1367.57
	818	1.638	6.08903E-001	1.25334E-009	0.00000E+000	6.09993E-001	0.00000E+000	4	...........	1367.57
	819	1.64	6.18898E-001	1.24181E-009	0.00000E+000	6.19990E-001	0.00000E+000	4	...........	1367.57
	820	1.642	6.28904E-001	1.23044E-009	0.00000E+000	6.29988E-001	0.00000E+000	4	...........	1367.57
	821	1.644	6.38906E-001	1.21931E-009	0.00000E+000	6.39985E-001	0.00000E+000	4	...........	1367.57
	822	1.646	6.48905E-001	1.20808E-009	0.00000E+000	6.49983E-001	0.00000E+000	4	...........	1367.57
	823	1.648	6.58896E-001	1.19656E-009	0.00000E+000	6.59980E-001	0.00000E+000	4	...........	1367.57
	824	1.65	6.68903E-001	1.18493E-009	0.00000E+000	6.69977E-001	0.00000E+000	4	...........	1367.57
	825	1.652	6.78961E-001	1.17276E-009	0.00000E+000	6.80025E-001	0.00000E+000	4	...........	1367.57
	826	1.654	6.88949E-001	1.16009E-009	0.00000E+000	6.90022E-001	0.00000E+000	4	...........	1367.57
	827	1.656	6.98936E-001	1.14729E-009	0.00000E+000	7.00020E-001	0.00000E+000	4	...........	1367.57
	828	1.658	7.08956E-001	1.13454E-009	0.00000E+000	7.10017E-001	0.00000E+000	4	...........	1367.57
	829	1.66	7.18939E-001	1.12124E-009	0.00000E+000	7.20015E-001	0.00000E+000	4	...........	1367.57
	830	1.662	7.28942E-001	1.10750E-009	0.00000E+000	7.30012E-001	0.00000E+000	4	...........	1367.57
	831	1.664	7.38926E-001	1.09367E-009	0.00000E+000	7.40010E-001	0.00000E+000	4	...........	1367.57
	832	1.666	7.48940E-001	1.08008E-009	0.00000E+000	7.50007E-001	0.00000E+000	4	...........	1367.57
	833	1.668	7.58937E-001	1.06679E-009	0.00000E+000	7.60004E-001	0.00000E+000	4	...........	1367.57
	834	1.67	7.68938E-001	1.05554E-009	0.00000E+000	7.70002E-001	0.00000E+000	4	...........	1367.57
	835	1.672	7.78909E-001	1.04486E-009	0.00000E+000	7.79999E-001	0.00000E+000	4	...........	1367.57
	836	1.674	7.88924E-001	1.03477E-009	0.00000E+000	7.89997E-001	0.00000E+000	4	...........	1367.57
	837	1.676	7.98936E-001	1.02611E-009	0.00000E+000	7.99994E-001	0.00000E+000	4	...........	1367.57
CURVE4	TABLE
	Pt	T	Vf	Im	Vu	Sig	Ach	IERange	Over	Temp
	#	s	V vs. Ref.	A	V	V	V	#	bits	deg C
	838	1.678	7.91284E-001	9.73565E-010	0.00000E+000	7.89997E-001	0.00000E+000	4	...........	1367.57
	839	1.68	7.81271E-001	9.08114E-010	0.00000E+000	7.79999E-001	0.00000E+000	4	...........	1367.57
	840	1.682	7.71293E-001	8.41213E-010	0.00000E+000	7.70002E-001	0.00000E+000	4	...........	1367.57