File: Test_Data_Files/20250509_W_IF0011_IIA42_E06_PBSair_PEDOT_CV50.DTA
EXPLAIN
TAG	CV
TITLE	LABEL	CV50	Test Identifier
DATE	LABEL	5/9/2025	Date
TIME	LABEL	15:14:59	Time
NOTES	NOTES	1	Notes...

PSTAT	PSTAT	REF600P-43058	Potentiostat
VINIT	POTEN	0.00000E+000	T	Initial E (V)
VLIMIT1	POTEN	-9.00000E-001	F	Scan Limit 1 (V)
VLIMIT2	POTEN	6.00000E-001	F	Scan Limit 2 (V)
VFINAL	POTEN	0.00000E+000	T	Final E (V)
SCANRATE	QUANT	4.99999E+001	Scan Rate (mV/s)
STEPSIZE	QUANT	1.00000E+001	Step Size (mV)
CYCLES	IQUANT	3	Cycles (#)
IMODE	SELECTOR	1	I/E Range Mode
IRANGE	QUANT	1.00000E-003	Max Current (mA)
AREA	QUANT	1.00000E+000	Sample Area (cm^2)
EQDELAY	QUANT	5.00000E+000	Equil. Time (s)
IRCOMP	SELECTOR	0	IRComp
PFCOR	QUANT	5.00000E+001	PF Corr. (ohm)
SAMPLINGMODE	SELECTOR	2	Sampling Mode
EOC	QUANT	0.1578626	Open Circuit (V)
ELECTRODETYPE	SELECTOR	0	Electrode Type
STRIPPING	TOGGLE	F	Used for Stripping
SEQUENCER	TOGGLE	TRUE	Run as Sequence
PSTATMODEL	IQUANT	7	Pstat Model
PSTATSECTION	LABEL	REF600P-43058	Pstat Section
PSTATSERIALNO	LABEL	43058	Pstat Serial Number
CTRLMODE	IQUANT	1	Control Mode
ELECTROMETER	IQUANT	0	RE=0 or CS=1
IESTAB	IQUANT	2	I/E Stability
CASPEED	IQUANT	4	Control Amp Speed
CONVENTION	IQUANT	1	Current Convention
ICHRANGE	IQUANT	2	Ich Range
ICHRANGEMODE	TOGGLE	F	Ich Auto Range
ICHOFFSETENABLE	TOGGLE	F	Ich Offset Enable
ICHOFFSET	QUANT	0	Ich Offset (V)
ICHFILTER	IQUANT	2	Ich Filter
VCHRANGE	IQUANT	2	Vch Range
VCHRANGEMODE	TOGGLE	F	Vch Auto Range
VCHOFFSETENABLE	TOGGLE	F	Vch Offset Enable
VCHOFFSET	QUANT	0	Vch Offset (V)
VCHFILTER	IQUANT	2	Vch Filter
ACHRANGE	IQUANT	2	Ach Range
ACHOFFSETENABLE	TOGGLE	F	Ach Offset Enable
ACHOFFSET	QUANT	0	Ach Offset (V)
ACHFILTER	IQUANT	1	Ach Filter
IERANGELOWERLIMIT	IQUANT	1	I/E Range Lower Limit
IERANGEMODE	TOGGLE	F	I/E AutoRange
IERANGE	IQUANT	6	I/E Range
POSFEEDENABLE	TOGGLE	F	Positive Feedback IR Comp
POSFEEDRESISTANCE	QUANT	0	Positive Feedback Resistance (ohm)
ACHSELECT	IQUANT	4	Ach Select
SENSECABLEID	IQUANT	7	Sense Cable ID
PWRCABLEID	IQUANT	7	Power Cable ID
DCCALDATE	LABEL	5/8/2025	DC Calibration Date
ACCALDATE	LABEL	5/8/2025	AC Calibration Date
THERMOSELECT	IQUANT	1	Thermo Select
FRAMEWORKVERSION	LABEL	7.10.4	Framework Version
INSTRUMENTVERSION	LABEL	5.01	Instrument Version
COMMVERSION	LABEL	5.10	Communications Version
CPUPLDVERSION	LABEL	6.00	CPU PLD Version
CTRLPLDVERSION	LABEL	3.21	CTRL PLD Version
PSTATPLDVERSION	LABEL	0.00	PSTAT PLD Version
CURVE1	TABLE
	Pt	T	Vf	Im	Vu	Sig	Ach	IERange	Over	Temp
	#	s	V vs. Ref.	A	V	V	V	#	bits	deg C
	0	0.2	1.57878E-001	5.06714E-010	0.00000E+000	1.57850E-001	1.45121E-003	6	...........	-327.66
	1	0.4	1.47966E-001	-2.99714E-008	0.00000E+000	1.47850E-001	1.44791E-003	6	...........	-327.66
	2	0.6	1.37920E-001	-3.09788E-008	0.00000E+000	1.37850E-001	1.44072E-003	6	...........	-327.66
	3	0.8	1.27911E-001	-3.13349E-008	0.00000E+000	1.27850E-001	1.44272E-003	6	...........	-327.66
	4	1	1.17920E-001	-3.16282E-008	0.00000E+000	1.17850E-001	1.44424E-003	6	...........	-327.66
	5	1.2	1.07964E-001	-3.19309E-008	0.00000E+000	1.07850E-001	1.45565E-003	6	...........	-327.66
	6	1.4	9.79031E-002	-3.21258E-008	0.00000E+000	9.78500E-002	1.44879E-003	6	...........	-327.66
	7	1.6	8.79213E-002	-3.24180E-008	0.00000E+000	8.78500E-002	1.45103E-003	6	...........	-327.66
	8	1.8	7.78955E-002	-3.27449E-008	0.00000E+000	7.78500E-002	1.44914E-003	6	...........	-327.66
	9	2	6.79514E-002	-3.30589E-008	0.00000E+000	6.78500E-002	1.45178E-003	6	...........	-327.66
	10	2.2	5.79006E-002	-3.33066E-008	0.00000E+000	5.78500E-002	1.43894E-003	6	...........	-327.66
	11	2.4	4.79194E-002	-3.36191E-008	0.00000E+000	4.78500E-002	1.44428E-003	6	...........	-327.66
	12	2.6	3.79173E-002	-3.40067E-008	0.00000E+000	3.78500E-002	1.44071E-003	6	...........	-327.66
	13	2.8	2.79675E-002	-3.43439E-008	0.00000E+000	2.78500E-002	1.44229E-003	6	...........	-327.66
	14	3	1.79362E-002	-3.46851E-008	0.00000E+000	1.78500E-002	1.44994E-003	6	...........	-327.66
	15	3.2	7.92865E-003	-3.50298E-008	0.00000E+000	7.84999E-003	1.45380E-003	6	...........	-327.66
	16	3.4	-2.13461E-003	-3.54831E-008	0.00000E+000	-2.15001E-003	1.45930E-003	6	...........	-327.66
	17	3.6	-1.20210E-002	-3.58452E-008	0.00000E+000	-1.21500E-002	1.45329E-003	6	...........	-327.66
	18	3.8	-2.21327E-002	-3.62369E-008	0.00000E+000	-2.21500E-002	1.45400E-003	6	...........	-327.66
	19	4	-3.20829E-002	-3.67050E-008	0.00000E+000	-3.21500E-002	1.45188E-003	6	...........	-327.66
	20	4.2	-4.21003E-002	-3.71376E-008	0.00000E+000	-4.21500E-002	1.44544E-003	6	...........	-327.66
	21	4.4	-5.20288E-002	-3.75803E-008	0.00000E+000	-5.21500E-002	1.45731E-003	6	...........	-327.66
	22	4.6	-6.20987E-002	-3.80361E-008	0.00000E+000	-6.21500E-002	1.45111E-003	6	...........	-327.66
	23	4.8	-7.21020E-002	-3.85457E-008	0.00000E+000	-7.21500E-002	1.45745E-003	6	...........	-327.66
	24	5	-8.21424E-002	-3.90650E-008	0.00000E+000	-8.21500E-002	1.44751E-003	6	...........	-327.66
	25	5.2	-9.20472E-002	-3.95391E-008	0.00000E+000	-9.21500E-002	1.43671E-003	6	...........	-327.66
	26	5.4	-1.02178E-001	-4.00828E-008	0.00000E+000	-1.02150E-001	1.43819E-003	6	...........	-327.66
	27	5.6	-1.12082E-001	-4.06054E-008	0.00000E+000	-1.12150E-001	1.43247E-003	6	...........	-327.66
	28	5.8	-1.22157E-001	-4.12232E-008	0.00000E+000	-1.22150E-001	1.43806E-003	6	...........	-327.66
	29	6	-1.32041E-001	-4.17623E-008	0.00000E+000	-1.32150E-001	1.43867E-003	6	...........	-327.66
	30	6.2	-1.42122E-001	-4.23994E-008	0.00000E+000	-1.42150E-001	1.44731E-003	6	...........	-327.66
	31	6.4	-1.52146E-001	-4.29522E-008	0.00000E+000	-1.52150E-001	1.43999E-003	6	...........	-327.66
	32	6.6	-1.62144E-001	-4.36969E-008	0.00000E+000	-1.62150E-001	1.44799E-003	6	...........	-327.66
	33	6.8	-1.72043E-001	-4.43103E-008	0.00000E+000	-1.72150E-001	1.44768E-003	6	...........	-327.66
	34	7	-1.82136E-001	-4.49634E-008	0.00000E+000	-1.82150E-001	1.42480E-003	6	...........	-327.66
	35	7.2	-1.92101E-001	-4.57426E-008	0.00000E+000	-1.92150E-001	1.43777E-003	6	...........	-327.66
	36	7.4	-2.02157E-001	-4.65140E-008	0.00000E+000	-2.02150E-001	1.43439E-003	6	...........	-327.66
	37	7.6	-2.12011E-001	-4.72722E-008	0.00000E+000	-2.12150E-001	1.44287E-003	6	...........	-327.66
	38	7.8	-2.22086E-001	-4.79404E-008	0.00000E+000	-2.22150E-001	1.44761E-003	6	...........	-327.66
	39	8	-2.32084E-001	-4.87465E-008	0.00000E+000	-2.32150E-001	1.44969E-003	6	...........	-327.66
	40	8.2	-2.42073E-001	-4.95782E-008	0.00000E+000	-2.42150E-001	1.43434E-003	6	...........	-327.66
	41	8.4	-2.52028E-001	-5.04330E-008	0.00000E+000	-2.52150E-001	1.44864E-003	6	...........	-327.66
	42	8.6	-2.62078E-001	-5.12219E-008	0.00000E+000	-2.62150E-001	1.43569E-003	6	...........	-327.66
	43	8.8	-2.72077E-001	-5.20460E-008	0.00000E+000	-2.72150E-001	1.43927E-003	6	...........	-327.66
	44	9	-2.82086E-001	-5.28780E-008	0.00000E+000	-2.82150E-001	1.43499E-003	6	...........	-327.66
	45	9.2	-2.91985E-001	-5.36936E-008	0.00000E+000	-2.92150E-001	1.44548E-003	6	...........	-327.66
	46	9.4	-3.02097E-001	-5.45998E-008	0.00000E+000	-3.02150E-001	1.44378E-003	6	...........	-327.66
	47	9.6	-3.12071E-001	-5.54847E-008	0.00000E+000	-3.12150E-001	1.44949E-003	6	...........	-327.66
	48	9.8	-3.22085E-001	-5.64136E-008	0.00000E+000	-3.22150E-001	1.45176E-003	6	...........	-327.66
	49	10	-3.32057E-001	-5.72985E-008	0.00000E+000	-3.32150E-001	1.44751E-003	6	...........	-327.66
	50	10.2	-3.42104E-001	-5.81990E-008	0.00000E+000	-3.42150E-001	1.44684E-003	6	...........	-327.66
	51	10.4	-3.52116E-001	-5.91646E-008	0.00000E+000	-3.52150E-001	1.45163E-003	6	...........	-327.66
	52	10.6	-3.62094E-001	-6.01109E-008	0.00000E+000	-3.62150E-001	1.43492E-003	6	...........	-327.66
	53	10.8	-3.72025E-001	-6.10431E-008	0.00000E+000	-3.72150E-001	1.44504E-003	6	...........	-327.66
	54	11	-3.82103E-001	-6.20102E-008	0.00000E+000	-3.82150E-001	1.44529E-003	6	...........	-327.66
	55	11.2	-3.92083E-001	-6.29764E-008	0.00000E+000	-3.92150E-001	1.45073E-003	6	...........	-327.66
	56	11.4	-4.02101E-001	-6.39443E-008	0.00000E+000	-4.02150E-001	1.45088E-003	6	...........	-327.66
	57	11.6	-4.11999E-001	-6.48501E-008	0.00000E+000	-4.12150E-001	1.44903E-003	6	...........	-327.66
	58	11.8	-4.22071E-001	-6.57926E-008	0.00000E+000	-4.22150E-001	1.43654E-003	6	...........	-327.66
	59	12	-4.32059E-001	-6.67100E-008	0.00000E+000	-4.32150E-001	1.43912E-003	6	...........	-327.66
	60	12.2	-4.42080E-001	-6.77460E-008	0.00000E+000	-4.42150E-001	1.45363E-003	6	...........	-327.66
	61	12.4	-4.51972E-001	-6.86221E-008	0.00000E+000	-4.52150E-001	1.44543E-003	6	...........	-327.66
	62	12.6	-4.62047E-001	-6.96257E-008	0.00000E+000	-4.62150E-001	1.44631E-003	6	...........	-327.66
	63	12.8	-4.71971E-001	-7.06276E-008	0.00000E+000	-4.72150E-001	1.45773E-003	6	...........	-327.66
	64	13	-4.82051E-001	-7.17773E-008	0.00000E+000	-4.82150E-001	1.45046E-003	6	...........	-327.66
	65	13.2	-4.92001E-001	-7.27050E-008	0.00000E+000	-4.92150E-001	1.45735E-003	6	...........	-327.66
	66	13.4	-5.02042E-001	-7.37460E-008	0.00000E+000	-5.02150E-001	1.43364E-003	6	...........	-327.66
	67	13.6	-5.12016E-001	-7.48444E-008	0.00000E+000	-5.12150E-001	1.44301E-003	6	...........	-327.66
	68	13.8	-5.22082E-001	-7.59802E-008	0.00000E+000	-5.22150E-001	1.44371E-003	6	...........	-327.66
	69	14	-5.31988E-001	-7.71630E-008	0.00000E+000	-5.32150E-001	1.45788E-003	6	...........	-327.66
	70	14.2	-5.42086E-001	-7.80936E-008	0.00000E+000	-5.42150E-001	1.45376E-003	6	...........	-327.66
	71	14.4	-5.51985E-001	-7.92428E-008	0.00000E+000	-5.52150E-001	1.45645E-003	6	...........	-327.66
	72	14.6	-5.62094E-001	-8.04617E-008	0.00000E+000	-5.62150E-001	1.45151E-003	6	...........	-327.66
	73	14.8	-5.71984E-001	-8.16102E-008	0.00000E+000	-5.72150E-001	1.46313E-003	6	...........	-327.66
	74	15	-5.82038E-001	-8.26650E-008	0.00000E+000	-5.82150E-001	1.44252E-003	6	...........	-327.66
	75	15.2	-5.92040E-001	-8.36408E-008	0.00000E+000	-5.92150E-001	1.43909E-003	6	...........	-327.66
	76	15.4	-6.02047E-001	-8.47348E-008	0.00000E+000	-6.02150E-001	1.44174E-003	6	...........	-327.66
	77	15.6	-6.11980E-001	-8.56854E-008	0.00000E+000	-6.12150E-001	1.44209E-003	6	...........	-327.66
	78	15.8	-6.22033E-001	-8.66084E-008	0.00000E+000	-6.22150E-001	1.44536E-003	6	...........	-327.66
	79	16	-6.31985E-001	-8.74020E-008	0.00000E+000	-6.32150E-001	1.45653E-003	6	...........	-327.66
	80	16.2	-6.42038E-001	-8.81750E-008	0.00000E+000	-6.42150E-001	1.44754E-003	6	...........	-327.66
	81	16.4	-6.51945E-001	-8.88050E-008	0.00000E+000	-6.52150E-001	1.45458E-003	6	...........	-327.66
	82	16.6	-6.62029E-001	-8.93013E-008	0.00000E+000	-6.62150E-001	1.44099E-003	6	...........	-327.66
	83	16.8	-6.72012E-001	-8.96326E-008	0.00000E+000	-6.72150E-001	1.44663E-003	6	...........	-327.66
	84	17	-6.82006E-001	-8.95928E-008	0.00000E+000	-6.82150E-001	1.44199E-003	6	...........	-327.66
	85	17.2	-6.91984E-001	-8.92750E-008	0.00000E+000	-6.92150E-001	1.44454E-003	6	...........	-327.66
	86	17.4	-7.01973E-001	-8.84219E-008	0.00000E+000	-7.02150E-001	1.45536E-003	6	...........	-327.66
	87	17.6	-7.12021E-001	-8.71311E-008	0.00000E+000	-7.12150E-001	1.45396E-003	6	...........	-327.66
	88	17.8	-7.22041E-001	-8.52302E-008	0.00000E+000	-7.22150E-001	1.45763E-003	6	...........	-327.66
	89	18	-7.31958E-001	-8.27367E-008	0.00000E+000	-7.32150E-001	1.44369E-003	6	...........	-327.66
	90	18.2	-7.42056E-001	-7.97086E-008	0.00000E+000	-7.42150E-001	1.43012E-003	6	...........	-327.66
	91	18.4	-7.52036E-001	-7.63023E-008	0.00000E+000	-7.52150E-001	1.44611E-003	6	...........	-327.66
	92	18.6	-7.62035E-001	-7.26188E-008	0.00000E+000	-7.62150E-001	1.44169E-003	6	...........	-327.66
	93	18.8	-7.71985E-001	-6.85990E-008	0.00000E+000	-7.72150E-001	1.44031E-003	6	...........	-327.66
	94	19	-7.81998E-001	-6.43925E-008	0.00000E+000	-7.82150E-001	1.44919E-003	6	...........	-327.66
	95	19.2	-7.92036E-001	-6.02101E-008	0.00000E+000	-7.92150E-001	1.45660E-003	6	...........	-327.66
	96	19.4	-8.02031E-001	-5.60184E-008	0.00000E+000	-8.02150E-001	1.44799E-003	6	...........	-327.66
	97	19.6	-8.11954E-001	-5.20375E-008	0.00000E+000	-8.12150E-001	1.45570E-003	6	...........	-327.66
	98	19.8	-8.22047E-001	-4.84174E-008	0.00000E+000	-8.22150E-001	1.43791E-003	6	...........	-327.66
	99	20	-8.32004E-001	-4.49078E-008	0.00000E+000	-8.32150E-001	1.44844E-003	6	...........	-327.66
	100	20.2	-8.42056E-001	-4.18169E-008	0.00000E+000	-8.42150E-001	1.45143E-003	6	...........	-327.66
	101	20.4	-8.51970E-001	-3.90108E-008	0.00000E+000	-8.52150E-001	1.46435E-003	6	...........	-327.66
	102	20.6	-8.62030E-001	-3.62654E-008	0.00000E+000	-8.62150E-001	1.46255E-003	6	...........	-327.66
	103	20.8	-8.71977E-001	-3.42439E-008	0.00000E+000	-8.72150E-001	1.45930E-003	6	...........	-327.66
	104	21	-8.81848E-001	-3.23250E-008	0.00000E+000	-8.82150E-001	1.45816E-003	6	...........	-327.66
	105	21.2	-8.91947E-001	-3.06675E-008	0.00000E+000	-8.92150E-001	1.46353E-003	6	...........	-327.66
	106	21.4	-9.02007E-001	-2.90317E-008	0.00000E+000	-9.02150E-001	1.43984E-003	6	...........	-327.66
	107	21.6	-8.92005E-001	-2.50382E-008	0.00000E+000	-8.92150E-001	1.46893E-003	6	...........	-327.66
	108	21.8	-8.82010E-001	-2.28236E-008	0.00000E+000	-8.82150E-001	1.44999E-003	6	...........	-327.66
	109	22	-8.72074E-001	-2.11143E-008	0.00000E+000	-8.72150E-001	1.45223E-003	6	...........	-327.66
	110	22.2	-8.62080E-001	-1.95296E-008	0.00000E+000	-8.62150E-001	1.45111E-003	6	...........	-327.66
	111	22.4	-8.52030E-001	-1.82199E-008	0.00000E+000	-8.52150E-001	1.44799E-003	6	...........	-327.66
	112	22.6	-8.42081E-001	-1.68343E-008	0.00000E+000	-8.42150E-001	1.45349E-003	6	...........	-327.66
	113	22.8	-8.32067E-001	-1.53723E-008	0.00000E+000	-8.32150E-001	1.44072E-003	6	...........	-327.66
	114	23	-8.22057E-001	-1.38610E-008	0.00000E+000	-8.22150E-001	1.43986E-003	6	...........	-327.66
	115	23.2	-8.12012E-001	-1.22109E-008	0.00000E+000	-8.12150E-001	1.45648E-003	6	...........	-327.66
	116	23.4	-8.02034E-001	-1.03789E-008	0.00000E+000	-8.02150E-001	1.45856E-003	6	...........	-327.66
	117	23.6	-7.92067E-001	-8.32535E-009	0.00000E+000	-7.92150E-001	1.45254E-003	6	...........	-327.66
	118	23.8	-7.82017E-001	-5.92732E-009	0.00000E+000	-7.82150E-001	1.45728E-003	6	...........	-327.66
	119	24	-7.72021E-001	-3.22772E-009	0.00000E+000	-7.72150E-001	1.44784E-003	6	...........	-327.66
	120	24.2	-7.62080E-001	-1.15740E-010	0.00000E+000	-7.62150E-001	1.44721E-003	6	...........	-327.66
	121	24.4	-7.52055E-001	3.39138E-009	0.00000E+000	-7.52150E-001	1.45478E-003	6	...........	-327.66
	122	24.6	-7.42089E-001	7.23975E-009	0.00000E+000	-7.42150E-001	1.45066E-003	6	...........	-327.66
	123	24.8	-7.32019E-001	1.12914E-008	0.00000E+000	-7.32150E-001	1.45413E-003	6	...........	-327.66
	124	25	-7.22056E-001	1.55101E-008	0.00000E+000	-7.22150E-001	1.45308E-003	6	...........	-327.66
	125	25.2	-7.12086E-001	1.95145E-008	0.00000E+000	-7.12150E-001	1.45415E-003	6	...........	-327.66
	126	25.4	-7.02038E-001	2.30685E-008	0.00000E+000	-7.02150E-001	1.45598E-003	6	...........	-327.66
	127	25.6	-6.92027E-001	2.56818E-008	0.00000E+000	-6.92150E-001	1.44843E-003	6	...........	-327.66
	128	25.8	-6.82062E-001	2.73787E-008	0.00000E+000	-6.82150E-001	1.44913E-003	6	...........	-327.66
	129	26	-6.72062E-001	2.81347E-008	0.00000E+000	-6.72150E-001	1.44374E-003	6	...........	-327.66
	130	26.2	-6.62064E-001	2.83823E-008	0.00000E+000	-6.62150E-001	1.44082E-003	6	...........	-327.66
	131	26.4	-6.52017E-001	2.83987E-008	0.00000E+000	-6.52150E-001	1.44631E-003	6	...........	-327.66
	132	26.6	-6.42054E-001	2.84401E-008	0.00000E+000	-6.42150E-001	1.45296E-003	6	...........	-327.66
	133	26.8	-6.32063E-001	2.86009E-008	0.00000E+000	-6.32150E-001	1.45018E-003	6	...........	-327.66
	134	27	-6.22053E-001	2.87719E-008	0.00000E+000	-6.22150E-001	1.43871E-003	6	...........	-327.66
	135	27.2	-6.12036E-001	2.89770E-008	0.00000E+000	-6.12150E-001	1.44161E-003	6	...........	-327.66
	136	27.4	-6.02093E-001	2.93060E-008	0.00000E+000	-6.02150E-001	1.45121E-003	6	...........	-327.66
	137	27.6	-5.92111E-001	2.96808E-008	0.00000E+000	-5.92150E-001	1.44176E-003	6	...........	-327.66
	138	27.8	-5.82085E-001	3.00468E-008	0.00000E+000	-5.82150E-001	1.44301E-003	6	...........	-327.66
	139	28	-5.72039E-001	3.04230E-008	0.00000E+000	-5.72150E-001	1.45303E-003	6	...........	-327.66
	140	28.2	-5.62109E-001	3.08577E-008	0.00000E+000	-5.62150E-001	1.44789E-003	6	...........	-327.66
	141	28.4	-5.52074E-001	3.13449E-008	0.00000E+000	-5.52150E-001	1.45054E-003	6	...........	-327.66
	142	28.6	-5.42094E-001	3.18514E-008	0.00000E+000	-5.42150E-001	1.44006E-003	6	...........	-327.66
	143	28.8	-5.32046E-001	3.22706E-008	0.00000E+000	-5.32150E-001	1.44383E-003	6	...........	-327.66
	144	29	-5.22119E-001	3.28012E-008	0.00000E+000	-5.22150E-001	1.43904E-003	6	...........	-327.66
	145	29.2	-5.12112E-001	3.33877E-008	0.00000E+000	-5.12150E-001	1.44396E-003	6	...........	-327.66
	146	29.4	-5.02102E-001	3.39410E-008	0.00000E+000	-5.02150E-001	1.43542E-003	6	...........	-327.66
	147	29.6	-4.92040E-001	3.44984E-008	0.00000E+000	-4.92150E-001	1.45023E-003	6	...........	-327.66
	148	29.8	-4.82105E-001	3.49806E-008	0.00000E+000	-4.82150E-001	1.45176E-003	6	...........	-327.66
	149	30	-4.72039E-001	3.56205E-008	0.00000E+000	-4.72150E-001	1.45423E-003	6	...........	-327.66
	150	30.2	-4.62091E-001	3.62846E-008	0.00000E+000	-4.62150E-001	1.45735E-003	6	...........	-327.66
	151	30.4	-4.52009E-001	3.69877E-008	0.00000E+000	-4.52150E-001	1.45183E-003	6	...........	-327.66
	152	30.6	-4.42093E-001	3.75056E-008	0.00000E+000	-4.42150E-001	1.44426E-003	6	...........	-327.66
	153	30.8	-4.32102E-001	3.82017E-008	0.00000E+000	-4.32150E-001	1.43654E-003	6	...........	-327.66
	154	31	-4.22101E-001	3.88560E-008	0.00000E+000	-4.22150E-001	1.44913E-003	6	...........	-327.66
	155	31.2	-4.12037E-001	3.95043E-008	0.00000E+000	-4.12150E-001	1.44693E-003	6	...........	-327.66
	156	31.4	-4.02146E-001	4.01305E-008	0.00000E+000	-4.02150E-001	1.45053E-003	6	...........	-327.66
	157	31.6	-3.92108E-001	4.08146E-008	0.00000E+000	-3.92150E-001	1.44903E-003	6	...........	-327.66
	158	31.8	-3.82121E-001	4.15073E-008	0.00000E+000	-3.82150E-001	1.44384E-003	6	...........	-327.66
	159	32	-3.72051E-001	4.20835E-008	0.00000E+000	-3.72150E-001	1.45318E-003	6	...........	-327.66
	160	32.2	-3.62102E-001	4.27045E-008	0.00000E+000	-3.62150E-001	1.44246E-003	6	...........	-327.66
	161	32.4	-3.52136E-001	4.32999E-008	0.00000E+000	-3.52150E-001	1.44064E-003	6	...........	-327.66
	162	32.6	-3.42131E-001	4.39346E-008	0.00000E+000	-3.42150E-001	1.44171E-003	6	...........	-327.66
	163	32.8	-3.32081E-001	4.43887E-008	0.00000E+000	-3.32150E-001	1.44496E-003	6	...........	-327.66
	164	33	-3.22118E-001	4.48600E-008	0.00000E+000	-3.22150E-001	1.44699E-003	6	...........	-327.66
	165	33.2	-3.12113E-001	4.54192E-008	0.00000E+000	-3.12150E-001	1.45791E-003	6	...........	-327.66
	166	33.4	-3.02125E-001	4.58810E-008	0.00000E+000	-3.02150E-001	1.45726E-003	6	...........	-327.66
	167	33.6	-2.92005E-001	4.63520E-008	0.00000E+000	-2.92150E-001	1.45139E-003	6	...........	-327.66
	168	33.8	-2.82100E-001	4.67362E-008	0.00000E+000	-2.82150E-001	1.44726E-003	6	...........	-327.66
	169	34	-2.72125E-001	4.71660E-008	0.00000E+000	-2.72150E-001	1.43737E-003	6	...........	-327.66
	170	34.2	-2.62101E-001	4.74899E-008	0.00000E+000	-2.62150E-001	1.45631E-003	6	...........	-327.66
	171	34.4	-2.52063E-001	4.78310E-008	0.00000E+000	-2.52150E-001	1.45268E-003	6	...........	-327.66
	172	34.6	-2.42123E-001	4.82239E-008	0.00000E+000	-2.42150E-001	1.45209E-003	6	...........	-327.66
	173	34.8	-2.32134E-001	4.85774E-008	0.00000E+000	-2.32150E-001	1.45351E-003	6	...........	-327.66
	174	35	-2.22131E-001	4.89079E-008	0.00000E+000	-2.22150E-001	1.44883E-003	6	...........	-327.66
	175	35.2	-2.12042E-001	4.90507E-008	0.00000E+000	-2.12150E-001	1.45343E-003	6	...........	-327.66
	176	35.4	-2.02187E-001	4.93507E-008	0.00000E+000	-2.02150E-001	1.44227E-003	6	...........	-327.66
	177	35.6	-1.92156E-001	4.97225E-008	0.00000E+000	-1.92150E-001	1.45094E-003	6	...........	-327.66
	178	35.8	-1.82154E-001	4.99462E-008	0.00000E+000	-1.82150E-001	1.44476E-003	6	...........	-327.66
	179	36	-1.72069E-001	5.01537E-008	0.00000E+000	-1.72150E-001	1.43402E-003	6	...........	-327.66
	180	36.2	-1.62144E-001	5.02455E-008	0.00000E+000	-1.62150E-001	1.44736E-003	6	...........	-327.66
	181	36.4	-1.52164E-001	5.05362E-008	0.00000E+000	-1.52150E-001	1.44331E-003	6	...........	-327.66
	182	36.6	-1.42158E-001	5.08665E-008	0.00000E+000	-1.42150E-001	1.44521E-003	6	...........	-327.66
	183	36.8	-1.32062E-001	5.10468E-008	0.00000E+000	-1.32150E-001	1.44252E-003	6	...........	-327.66
	184	37	-1.22205E-001	5.09748E-008	0.00000E+000	-1.22150E-001	1.45523E-003	6	...........	-327.66
	185	37.2	-1.12114E-001	5.12702E-008	0.00000E+000	-1.12150E-001	1.43664E-003	6	...........	-327.66
	186	37.4	-1.02196E-001	5.15899E-008	0.00000E+000	-1.02150E-001	1.44378E-003	6	...........	-327.66
	187	37.6	-9.20527E-002	5.17769E-008	0.00000E+000	-9.21500E-002	1.44973E-003	6	...........	-327.66
	188	37.8	-8.21607E-002	5.18631E-008	0.00000E+000	-8.21500E-002	1.44358E-003	6	...........	-327.66
	189	38	-7.21582E-002	5.18144E-008	0.00000E+000	-7.21500E-002	1.44883E-003	6	...........	-327.66
	190	38.2	-6.21416E-002	5.20248E-008	0.00000E+000	-6.21500E-002	1.44719E-003	6	...........	-327.66
	191	38.4	-5.20460E-002	5.22032E-008	0.00000E+000	-5.21500E-002	1.46218E-003	6	...........	-327.66
	192	38.6	-4.21469E-002	5.22996E-008	0.00000E+000	-4.21500E-002	1.45231E-003	6	...........	-327.66
	193	38.8	-3.21356E-002	5.23467E-008	0.00000E+000	-3.21500E-002	1.44386E-003	6	...........	-327.66
	194	39	-2.21741E-002	5.24533E-008	0.00000E+000	-2.21500E-002	1.44686E-003	6	...........	-327.66
	195	39.2	-1.20540E-002	5.25186E-008	0.00000E+000	-1.21500E-002	1.46773E-003	6	...........	-327.66
	196	39.4	-2.17643E-003	5.26291E-008	0.00000E+000	-2.15001E-003	1.45968E-003	6	...........	-327.66
	197	39.6	7.88664E-003	5.28046E-008	0.00000E+000	7.84999E-003	1.44956E-003	6	...........	-327.66
	198	39.8	1.79278E-002	5.29316E-008	0.00000E+000	1.78500E-002	1.45084E-003	6	...........	-327.66
	199	40	2.79314E-002	5.30035E-008	0.00000E+000	2.78500E-002	1.43824E-003	6	...........	-327.66
	200	40.2	3.78777E-002	5.31073E-008	0.00000E+000	3.78500E-002	1.44978E-003	6	...........	-327.66
	201	40.4	4.78913E-002	5.32802E-008	0.00000E+000	4.78500E-002	1.44766E-003	6	...........	-327.66
	202	40.6	5.78688E-002	5.33527E-008	0.00000E+000	5.78500E-002	1.44332E-003	6	...........	-327.66
	203	40.8	6.79220E-002	5.34589E-008	0.00000E+000	6.78500E-002	1.46050E-003	6	...........	-327.66
	204	41	7.78750E-002	5.36080E-008	0.00000E+000	7.78500E-002	1.44774E-003	6	...........	-327.66
	205	41.2	8.78787E-002	5.37720E-008	0.00000E+000	8.78500E-002	1.46328E-003	6	...........	-327.66
	206	41.4	9.78976E-002	5.39905E-008	0.00000E+000	9.78500E-002	1.44923E-003	6	...........	-327.66
	207	41.6	1.07936E-001	5.40961E-008	0.00000E+000	1.07850E-001	1.45044E-003	6	...........	-327.66
	208	41.8	1.17902E-001	5.42981E-008	0.00000E+000	1.17850E-001	1.45014E-003	6	...........	-327.66
	209	42	1.27893E-001	5.44470E-008	0.00000E+000	1.27850E-001	1.44331E-003	6	...........	-327.66
	210	42.2	1.37883E-001	5.46663E-008	0.00000E+000	1.37850E-001	1.44718E-003	6	...........	-327.66
	211	42.4	1.47934E-001	5.47683E-008	0.00000E+000	1.47850E-001	1.45184E-003	6	...........	-327.66
	212	42.6	1.57880E-001	5.49326E-008	0.00000E+000	1.57850E-001	1.45086E-003	6	...........	-327.66
	213	42.8	1.67810E-001	5.51385E-008	0.00000E+000	1.67850E-001	1.45833E-003	6	...........	-327.66
	214	43	1.77905E-001	5.53005E-008	0.00000E+000	1.77850E-001	1.45745E-003	6	...........	-327.66
	215	43.2	1.87935E-001	5.54002E-008	0.00000E+000	1.87850E-001	1.44741E-003	6	...........	-327.66
	216	43.4	1.97917E-001	5.54361E-008	0.00000E+000	1.97850E-001	1.44423E-003	6	...........	-327.66
	217	43.6	2.07832E-001	5.56129E-008	0.00000E+000	2.07850E-001	1.44909E-003	6	...........	-327.66
	218	43.8	2.17901E-001	5.57056E-008	0.00000E+000	2.17850E-001	1.43349E-003	6	...........	-327.66
	219	44	2.27894E-001	5.57698E-008	0.00000E+000	2.27850E-001	1.45406E-003	6	...........	-327.66
	220	44.2	2.37841E-001	5.58547E-008	0.00000E+000	2.37850E-001	1.45289E-003	6	...........	-327.66
	221	44.4	2.47875E-001	5.59872E-008	0.00000E+000	2.47850E-001	1.45753E-003	6	...........	-327.66
	222	44.6	2.57838E-001	5.61788E-008	0.00000E+000	2.57850E-001	1.44064E-003	6	...........	-327.66
	223	44.8	2.67876E-001	5.62860E-008	0.00000E+000	2.67850E-001	1.45725E-003	6	...........	-327.66
	224	45	2.77868E-001	5.63651E-008	0.00000E+000	2.77850E-001	1.44828E-003	6	...........	-327.66
	225	45.2	2.87801E-001	5.65246E-008	0.00000E+000	2.87850E-001	1.44374E-003	6	...........	-327.66
	226	45.4	2.97846E-001	5.67500E-008	0.00000E+000	2.97850E-001	1.44748E-003	6	...........	-327.66
	227	45.6	3.07870E-001	5.68948E-008	0.00000E+000	3.07850E-001	1.44809E-003	6	...........	-327.66
	228	45.8	3.17837E-001	5.70767E-008	0.00000E+000	3.17850E-001	1.45775E-003	6	...........	-327.66
	229	46	3.27851E-001	5.72953E-008	0.00000E+000	3.27850E-001	1.45536E-003	6	...........	-327.66
	230	46.2	3.37846E-001	5.75097E-008	0.00000E+000	3.37850E-001	1.45380E-003	6	...........	-327.66
	231	46.4	3.47880E-001	5.77487E-008	0.00000E+000	3.47850E-001	1.44826E-003	6	...........	-327.66
	232	46.6	3.57882E-001	5.80260E-008	0.00000E+000	3.57850E-001	1.44841E-003	6	...........	-327.66
	233	46.8	3.67812E-001	5.83716E-008	0.00000E+000	3.67850E-001	1.44739E-003	6	...........	-327.66
	234	47	3.77872E-001	5.86616E-008	0.00000E+000	3.77850E-001	1.44471E-003	6	...........	-327.66
	235	47.2	3.87873E-001	5.90096E-008	0.00000E+000	3.87850E-001	1.45256E-003	6	...........	-327.66
	236	47.4	3.97845E-001	5.93569E-008	0.00000E+000	3.97850E-001	1.45543E-003	6	...........	-327.66
	237	47.6	4.07837E-001	5.97530E-008	0.00000E+000	4.07850E-001	1.45585E-003	6	...........	-327.66
	238	47.8	4.17797E-001	6.01420E-008	0.00000E+000	4.17850E-001	1.44973E-003	6	...........	-327.66
	239	48	4.27861E-001	6.05338E-008	0.00000E+000	4.27850E-001	1.45071E-003	6	...........	-327.66
	240	48.2	4.37828E-001	6.09336E-008	0.00000E+000	4.37850E-001	1.44693E-003	6	...........	-327.66
	241	48.4	4.47822E-001	6.13857E-008	0.00000E+000	4.47850E-001	1.45426E-003	6	...........	-327.66
	242	48.6	4.57838E-001	6.18741E-008	0.00000E+000	4.57850E-001	1.44131E-003	6	...........	-327.66
	243	48.8	4.67862E-001	6.23577E-008	0.00000E+000	4.67850E-001	1.45058E-003	6	...........	-327.66
	244	49	4.77841E-001	6.28271E-008	0.00000E+000	4.77850E-001	1.45103E-003	6	...........	-327.66
	245	49.2	4.87785E-001	6.33708E-008	0.00000E+000	4.87850E-001	1.45284E-003	6	...........	-327.66
	246	49.4	4.97782E-001	6.38603E-008	0.00000E+000	4.97850E-001	1.46400E-003	6	...........	-327.66
	247	49.6	5.07898E-001	6.44022E-008	0.00000E+000	5.07850E-001	1.45299E-003	6	...........	-327.66
	248	49.8	5.17789E-001	6.49434E-008	0.00000E+000	5.17850E-001	1.45946E-003	6	...........	-327.66
	249	50	5.27857E-001	6.55787E-008	0.00000E+000	5.27850E-001	1.44998E-003	6	...........	-327.66
	250	50.2	5.37798E-001	6.61960E-008	0.00000E+000	5.37850E-001	1.44356E-003	6	...........	-327.66
	251	50.4	5.47879E-001	6.68620E-008	0.00000E+000	5.47850E-001	1.44764E-003	6	...........	-327.66
	252	50.6	5.57827E-001	6.75652E-008	0.00000E+000	5.57850E-001	1.45018E-003	6	...........	-327.66
	253	50.8	5.67786E-001	6.83186E-008	0.00000E+000	5.67850E-001	1.45354E-003	6	...........	-327.66
	254	51	5.77738E-001	6.91655E-008	0.00000E+000	5.77850E-001	1.45406E-003	6	...........	-327.66
	255	51.2	5.87889E-001	7.00700E-008	0.00000E+000	5.87850E-001	1.45343E-003	6	...........	-327.66
	256	51.4	5.97787E-001	7.10746E-008	0.00000E+000	5.97850E-001	1.45169E-003	6	...........	-327.66
CURVE2	TABLE
	Pt	T	Vf	Im	Vu	Sig	Ach	IERange	Over	Temp
	#	s	V vs. Ref.	A	V	V	V	#	bits	deg C
	257	51.6	5.89983E-001	1.84401E-009	0.00000E+000	5.90000E-001	1.45788E-003	6	...........	-327.66
	258	51.8	5.79994E-001	-1.30543E-008	0.00000E+000	5.80000E-001	1.45865E-003	6	...........	-327.66
	259	52	5.69994E-001	-1.77297E-008	0.00000E+000	5.70000E-001	1.44591E-003	6	...........	-327.66
	260	52.2	5.59971E-001	-2.09985E-008	0.00000E+000	5.60000E-001	1.44441E-003	6	...........	-327.66
	261	52.4	5.49998E-001	-2.34092E-008	0.00000E+000	5.50000E-001	1.45523E-003	6	...........	-327.66
	262	52.6	5.39997E-001	-2.53026E-008	0.00000E+000	5.40000E-001	1.45113E-003	6	...........	-327.66
	263	52.8	5.30015E-001	-2.66957E-008	0.00000E+000	5.30000E-001	1.46050E-003	6	...........	-327.66
	264	53	5.19980E-001	-2.78716E-008	0.00000E+000	5.20000E-001	1.46266E-003	6	...........	-327.66
	265	53.2	5.09980E-001	-2.88469E-008	0.00000E+000	5.10000E-001	1.47290E-003	6	...........	-327.66
	266	53.4	5.00009E-001	-2.96695E-008	0.00000E+000	5.00000E-001	1.45018E-003	6	...........	-327.66
	267	53.6	4.89983E-001	-3.03427E-008	0.00000E+000	4.90000E-001	1.44581E-003	6	...........	-327.66
	268	53.8	4.79958E-001	-3.10224E-008	0.00000E+000	4.80000E-001	1.45204E-003	6	...........	-327.66
	269	54	4.69982E-001	-3.15319E-008	0.00000E+000	4.70000E-001	1.44513E-003	6	...........	-327.66
	270	54.2	4.59997E-001	-3.20929E-008	0.00000E+000	4.60000E-001	1.45591E-003	6	...........	-327.66
	271	54.4	4.50008E-001	-3.24491E-008	0.00000E+000	4.50000E-001	1.45905E-003	6	...........	-327.66
	272	54.6	4.39944E-001	-3.29168E-008	0.00000E+000	4.40000E-001	1.45360E-003	6	...........	-327.66
	273	54.8	4.29997E-001	-3.32340E-008	0.00000E+000	4.30000E-001	1.46453E-003	6	...........	-327.66
	274	55	4.20045E-001	-3.35803E-008	0.00000E+000	4.20000E-001	1.45023E-003	6	...........	-327.66
	275	55.2	4.09989E-001	-3.38313E-008	0.00000E+000	4.10000E-001	1.44694E-003	6	...........	-327.66
	276	55.4	3.99985E-001	-3.41694E-008	0.00000E+000	4.00000E-001	1.44456E-003	6	...........	-327.66
	277	55.6	3.89996E-001	-3.44629E-008	0.00000E+000	3.90000E-001	1.44723E-003	6	...........	-327.66
	278	55.8	3.80001E-001	-3.46814E-008	0.00000E+000	3.80000E-001	1.44319E-003	6	...........	-327.66
	279	56	3.70032E-001	-3.48974E-008	0.00000E+000	3.70000E-001	1.45299E-003	6	...........	-327.66
	280	56.2	3.59980E-001	-3.51866E-008	0.00000E+000	3.60000E-001	1.44916E-003	6	...........	-327.66
	281	56.4	3.50026E-001	-3.53704E-008	0.00000E+000	3.50000E-001	1.46020E-003	6	...........	-327.66
	282	56.6	3.40014E-001	-3.56096E-008	0.00000E+000	3.40000E-001	1.46138E-003	6	...........	-327.66
	283	56.8	3.30021E-001	-3.57237E-008	0.00000E+000	3.30000E-001	1.45006E-003	6	...........	-327.66
	284	57	3.19992E-001	-3.59986E-008	0.00000E+000	3.20000E-001	1.45001E-003	6	...........	-327.66
	285	57.2	3.09998E-001	-3.62066E-008	0.00000E+000	3.10000E-001	1.44568E-003	6	...........	-327.66
	286	57.4	3.00002E-001	-3.64720E-008	0.00000E+000	3.00000E-001	1.45396E-003	6	...........	-327.66
	287	57.6	2.90016E-001	-3.65274E-008	0.00000E+000	2.90000E-001	1.45713E-003	6	...........	-327.66
	288	57.8	2.79986E-001	-3.67804E-008	0.00000E+000	2.80000E-001	1.45641E-003	6	...........	-327.66
	289	58	2.70091E-001	-3.69189E-008	0.00000E+000	2.70000E-001	1.46125E-003	6	...........	-327.66
	290	58.2	2.60007E-001	-3.72047E-008	0.00000E+000	2.60000E-001	1.45708E-003	6	...........	-327.66
	291	58.4	2.50049E-001	-3.72243E-008	0.00000E+000	2.50000E-001	1.44329E-003	6	...........	-327.66
	292	58.6	2.40007E-001	-3.74587E-008	0.00000E+000	2.40000E-001	1.44321E-003	6	...........	-327.66
	293	58.8	2.30001E-001	-3.76461E-008	0.00000E+000	2.30000E-001	1.45184E-003	6	...........	-327.66
	294	59	2.20006E-001	-3.78630E-008	0.00000E+000	2.20000E-001	1.44398E-003	6	...........	-327.66
	295	59.2	2.10003E-001	-3.79709E-008	0.00000E+000	2.10000E-001	1.46101E-003	6	...........	-327.66
	296	59.4	2.00000E-001	-3.81752E-008	0.00000E+000	2.00000E-001	1.46026E-003	6	...........	-327.66
	297	59.6	1.90050E-001	-3.82978E-008	0.00000E+000	1.90000E-001	1.46502E-003	6	...........	-327.66
	298	59.8	1.80019E-001	-3.85247E-008	0.00000E+000	1.80000E-001	1.45373E-003	6	...........	-327.66
	299	60	1.70116E-001	-3.86695E-008	0.00000E+000	1.70000E-001	1.45495E-003	6	...........	-327.66
	300	60.2	1.60010E-001	-3.89030E-008	0.00000E+000	1.60000E-001	1.44848E-003	6	...........	-327.66
	301	60.4	1.50031E-001	-3.90321E-008	0.00000E+000	1.50000E-001	1.45425E-003	6	...........	-327.66
	302	60.6	1.40097E-001	-3.92437E-008	0.00000E+000	1.40000E-001	1.45813E-003	6	...........	-327.66
	303	60.8	1.30056E-001	-3.93490E-008	0.00000E+000	1.30000E-001	1.45808E-003	6	...........	-327.66
	304	61	1.20008E-001	-3.96184E-008	0.00000E+000	1.20000E-001	1.45400E-003	6	...........	-327.66
	305	61.2	1.10024E-001	-3.97668E-008	0.00000E+000	1.10000E-001	1.45906E-003	6	...........	-327.66
	306	61.4	1.00011E-001	-4.00050E-008	0.00000E+000	1.00000E-001	1.46548E-003	6	...........	-327.66
	307	61.6	9.01264E-002	-4.01522E-008	0.00000E+000	9.00000E-002	1.45810E-003	6	...........	-327.66
	308	61.8	7.99932E-002	-4.04173E-008	0.00000E+000	8.00000E-002	1.44843E-003	6	...........	-327.66
	309	62	7.00214E-002	-4.06014E-008	0.00000E+000	7.00000E-002	1.44994E-003	6	...........	-327.66
	310	62.2	6.00492E-002	-4.07987E-008	0.00000E+000	6.00000E-002	1.44564E-003	6	...........	-327.66
	311	62.4	5.00362E-002	-4.09450E-008	0.00000E+000	5.00000E-002	1.45866E-003	6	...........	-327.66
	312	62.6	4.00083E-002	-4.11969E-008	0.00000E+000	4.00000E-002	1.45588E-003	6	...........	-327.66
	313	62.8	3.00139E-002	-4.14327E-008	0.00000E+000	3.00000E-002	1.45951E-003	6	...........	-327.66
	314	63	2.00121E-002	-4.16531E-008	0.00000E+000	2.00000E-002	1.46120E-003	6	...........	-327.66
	315	63.2	1.00569E-002	-4.17776E-008	0.00000E+000	9.99999E-003	1.44826E-003	6	...........	-327.66
	316	63.4	-1.15058E-006	-4.20685E-008	0.00000E+000	-1.49012E-008	1.43821E-003	6	...........	-327.66
	317	63.6	-9.94478E-003	-4.22453E-008	0.00000E+000	-1.00000E-002	1.45173E-003	6	...........	-327.66
	318	63.8	-1.99515E-002	-4.25806E-008	0.00000E+000	-2.00000E-002	1.45623E-003	6	...........	-327.66
	319	64	-2.99570E-002	-4.26650E-008	0.00000E+000	-3.00000E-002	1.46085E-003	6	...........	-327.66
	320	64.2	-3.99400E-002	-4.30023E-008	0.00000E+000	-4.00000E-002	1.46180E-003	6	...........	-327.66
	321	64.4	-4.99953E-002	-4.31988E-008	0.00000E+000	-5.00000E-002	1.45686E-003	6	...........	-327.66
	322	64.6	-5.99802E-002	-4.35126E-008	0.00000E+000	-6.00000E-002	1.46321E-003	6	...........	-327.66
	323	64.8	-6.99382E-002	-4.36655E-008	0.00000E+000	-7.00000E-002	1.45256E-003	6	...........	-327.66
	324	65	-8.00038E-002	-4.39329E-008	0.00000E+000	-8.00000E-002	1.45266E-003	6	...........	-327.66
	325	65.2	-8.99465E-002	-4.42119E-008	0.00000E+000	-9.00000E-002	1.45463E-003	6	...........	-327.66
	326	65.4	-9.99808E-002	-4.44820E-008	0.00000E+000	-1.00000E-001	1.45380E-003	6	...........	-327.66
	327	65.6	-1.09960E-001	-4.47388E-008	0.00000E+000	-1.10000E-001	1.46005E-003	6	...........	-327.66
	328	65.8	-1.19979E-001	-4.49979E-008	0.00000E+000	-1.20000E-001	1.46213E-003	6	...........	-327.66
	329	66	-1.29999E-001	-4.52640E-008	0.00000E+000	-1.30000E-001	1.46608E-003	6	...........	-327.66
	330	66.2	-1.39952E-001	-4.55556E-008	0.00000E+000	-1.40000E-001	1.46712E-003	6	...........	-327.66
	331	66.4	-1.49988E-001	-4.58634E-008	0.00000E+000	-1.50000E-001	1.46166E-003	6	...........	-327.66
	332	66.6	-1.60003E-001	-4.61711E-008	0.00000E+000	-1.60000E-001	1.45194E-003	6	...........	-327.66
	333	66.8	-1.69961E-001	-4.64758E-008	0.00000E+000	-1.70000E-001	1.45463E-003	6	...........	-327.66
	334	67	-1.79992E-001	-4.68504E-008	0.00000E+000	-1.80000E-001	1.46372E-003	6	...........	-327.66
	335	67.2	-1.89861E-001	-4.71529E-008	0.00000E+000	-1.90000E-001	1.46660E-003	6	...........	-327.66
	336	67.4	-2.00009E-001	-4.75805E-008	0.00000E+000	-2.00000E-001	1.46226E-003	6	...........	-327.66
	337	67.6	-2.09974E-001	-4.78668E-008	0.00000E+000	-2.10000E-001	1.45735E-003	6	...........	-327.66
	338	67.8	-2.19896E-001	-4.82695E-008	0.00000E+000	-2.20000E-001	1.46620E-003	6	...........	-327.66
	339	68	-2.29959E-001	-4.86274E-008	0.00000E+000	-2.30000E-001	1.45741E-003	6	...........	-327.66
	340	68.2	-2.39998E-001	-4.91428E-008	0.00000E+000	-2.40000E-001	1.45283E-003	6	...........	-327.66
	341	68.4	-2.49971E-001	-4.95664E-008	0.00000E+000	-2.50000E-001	1.46075E-003	6	...........	-327.66
	342	68.6	-2.59979E-001	-5.00180E-008	0.00000E+000	-2.60000E-001	1.45406E-003	6	...........	-327.66
	343	68.8	-2.69909E-001	-5.04254E-008	0.00000E+000	-2.70000E-001	1.45314E-003	6	...........	-327.66
	344	69	-2.80005E-001	-5.09886E-008	0.00000E+000	-2.80000E-001	1.46296E-003	6	...........	-327.66
	345	69.2	-2.89952E-001	-5.15458E-008	0.00000E+000	-2.90000E-001	1.47007E-003	6	...........	-327.66
	346	69.4	-2.99962E-001	-5.21028E-008	0.00000E+000	-3.00000E-001	1.46898E-003	6	...........	-327.66
	347	69.6	-3.09961E-001	-5.26279E-008	0.00000E+000	-3.10000E-001	1.45976E-003	6	...........	-327.66
	348	69.8	-3.19994E-001	-5.32391E-008	0.00000E+000	-3.20000E-001	1.46023E-003	6	...........	-327.66
	349	70	-3.29986E-001	-5.38402E-008	0.00000E+000	-3.30000E-001	1.45631E-003	6	...........	-327.66
	350	70.2	-3.39989E-001	-5.45049E-008	0.00000E+000	-3.40000E-001	1.45720E-003	6	...........	-327.66
	351	70.4	-3.49952E-001	-5.50122E-008	0.00000E+000	-3.50000E-001	1.46121E-003	6	...........	-327.66
	352	70.6	-3.59991E-001	-5.57012E-008	0.00000E+000	-3.60000E-001	1.46218E-003	6	...........	-327.66
	353	70.8	-3.69867E-001	-5.62594E-008	0.00000E+000	-3.70000E-001	1.46031E-003	6	...........	-327.66
	354	71	-3.79976E-001	-5.69293E-008	0.00000E+000	-3.80000E-001	1.46163E-003	6	...........	-327.66
	355	71.2	-3.89939E-001	-5.74349E-008	0.00000E+000	-3.90000E-001	1.45368E-003	6	...........	-327.66
	356	71.4	-3.99964E-001	-5.80244E-008	0.00000E+000	-4.00000E-001	1.44669E-003	6	...........	-327.66
	357	71.6	-4.09964E-001	-5.85888E-008	0.00000E+000	-4.10000E-001	1.45960E-003	6	...........	-327.66
	358	71.8	-4.19953E-001	-5.91490E-008	0.00000E+000	-4.20000E-001	1.44933E-003	6	...........	-327.66
	359	72	-4.29931E-001	-5.96720E-008	0.00000E+000	-4.30000E-001	1.45595E-003	6	...........	-327.66
	360	72.2	-4.39981E-001	-6.02450E-008	0.00000E+000	-4.40000E-001	1.46360E-003	6	...........	-327.66
	361	72.4	-4.49890E-001	-6.07853E-008	0.00000E+000	-4.50000E-001	1.47163E-003	6	...........	-327.66
	362	72.6	-4.59954E-001	-6.13714E-008	0.00000E+000	-4.60000E-001	1.47330E-003	6	...........	-327.66
	363	72.8	-4.69814E-001	-6.19121E-008	0.00000E+000	-4.70000E-001	1.46838E-003	6	...........	-327.66
	364	73	-4.79925E-001	-6.24958E-008	0.00000E+000	-4.80000E-001	1.46188E-003	6	...........	-327.66
	365	73.2	-4.89931E-001	-6.30158E-008	0.00000E+000	-4.90000E-001	1.45585E-003	6	...........	-327.66
	366	73.4	-4.99856E-001	-6.36353E-008	0.00000E+000	-5.00000E-001	1.46720E-003	6	...........	-327.66
	367	73.6	-5.09887E-001	-6.41423E-008	0.00000E+000	-5.10000E-001	1.46680E-003	6	...........	-327.66
	368	73.8	-5.19983E-001	-6.47830E-008	0.00000E+000	-5.20000E-001	1.46978E-003	6	...........	-327.66
	369	74	-5.29912E-001	-6.52610E-008	0.00000E+000	-5.30000E-001	1.46930E-003	6	...........	-327.66
	370	74.2	-5.39945E-001	-6.59129E-008	0.00000E+000	-5.40000E-001	1.47258E-003	6	...........	-327.66
	371	74.4	-5.49813E-001	-6.63867E-008	0.00000E+000	-5.50000E-001	1.47250E-003	6	...........	-327.66
	372	74.6	-5.59959E-001	-6.68887E-008	0.00000E+000	-5.60000E-001	1.45363E-003	6	...........	-327.66
	373	74.8	-5.69860E-001	-6.74495E-008	0.00000E+000	-5.70000E-001	1.46482E-003	6	...........	-327.66
	374	75	-5.79850E-001	-6.78947E-008	0.00000E+000	-5.80000E-001	1.46760E-003	6	...........	-327.66
	375	75.2	-5.89903E-001	-6.82799E-008	0.00000E+000	-5.90000E-001	1.46910E-003	6	...........	-327.66
	376	75.4	-5.99910E-001	-6.87695E-008	0.00000E+000	-6.00000E-001	1.46647E-003	6	...........	-327.66
	377	75.6	-6.09913E-001	-6.92175E-008	0.00000E+000	-6.10000E-001	1.47272E-003	6	...........	-327.66
	378	75.8	-6.19951E-001	-6.96370E-008	0.00000E+000	-6.20000E-001	1.47232E-003	6	...........	-327.66
	379	76	-6.29828E-001	-6.98888E-008	0.00000E+000	-6.30000E-001	1.46006E-003	6	...........	-327.66
	380	76.2	-6.39948E-001	-7.02512E-008	0.00000E+000	-6.40000E-001	1.46273E-003	6	...........	-327.66
[...]
	700	140.2	-8.39920E-001	-3.77585E-008	0.00000E+000	-8.40000E-001	1.47497E-003	6	...........	-327.66
	701	140.4	-8.49871E-001	-3.53543E-008	0.00000E+000	-8.50000E-001	1.47130E-003	6	...........	-327.66
	702	140.6	-8.59823E-001	-3.33769E-008	0.00000E+000	-8.60000E-001	1.48079E-003	6	...........	-327.66
	703	140.8	-8.69880E-001	-3.15466E-008	0.00000E+000	-8.70000E-001	1.46268E-003	6	...........	-327.66
	704	141	-8.79943E-001	-2.98853E-008	0.00000E+000	-8.80000E-001	1.46025E-003	6	...........	-327.66
	705	141.2	-8.89885E-001	-2.82737E-008	0.00000E+000	-8.90000E-001	1.46937E-003	6	...........	-327.66
	706	141.4	-8.99949E-001	-2.69165E-008	0.00000E+000	-9.00000E-001	1.46013E-003	6	...........	-327.66
	707	141.6	-8.89952E-001	-2.21366E-008	0.00000E+000	-8.90000E-001	1.45818E-003	6	...........	-327.66
	708	141.8	-8.79991E-001	-1.95125E-008	0.00000E+000	-8.80000E-001	1.46323E-003	6	...........	-327.66
	709	142	-8.69994E-001	-1.73640E-008	0.00000E+000	-8.70000E-001	1.45400E-003	6	...........	-327.66
	710	142.2	-8.59878E-001	-1.55728E-008	0.00000E+000	-8.60000E-001	1.47070E-003	6	...........	-327.66
	711	142.4	-8.49968E-001	-1.39188E-008	0.00000E+000	-8.50000E-001	1.47185E-003	6	...........	-327.66
	712	142.6	-8.40002E-001	-1.22214E-008	0.00000E+000	-8.40000E-001	1.47027E-003	6	...........	-327.66
	713	142.8	-8.29854E-001	-1.04566E-008	0.00000E+000	-8.30000E-001	1.45940E-003	6	...........	-327.66
	714	143	-8.19989E-001	-8.62207E-009	0.00000E+000	-8.20000E-001	1.46442E-003	6	...........	-327.66
	715	143.2	-8.09892E-001	-6.57602E-009	0.00000E+000	-8.10000E-001	1.46990E-003	6	...........	-327.66
	716	143.4	-7.99971E-001	-4.36093E-009	0.00000E+000	-8.00000E-001	1.45321E-003	6	...........	-327.66
	717	143.6	-7.89923E-001	-1.73112E-009	0.00000E+000	-7.90000E-001	1.46335E-003	6	...........	-327.66
	718	143.8	-7.79976E-001	1.16058E-009	0.00000E+000	-7.80000E-001	1.46605E-003	6	...........	-327.66
	719	144	-7.69967E-001	4.46961E-009	0.00000E+000	-7.70000E-001	1.47379E-003	6	...........	-327.66
	720	144.2	-7.59973E-001	7.92521E-009	0.00000E+000	-7.60000E-001	1.47047E-003	6	...........	-327.66
	721	144.4	-7.49898E-001	1.17593E-008	0.00000E+000	-7.50000E-001	1.47457E-003	6	...........	-327.66
	722	144.6	-7.39987E-001	1.56123E-008	0.00000E+000	-7.40000E-001	1.45843E-003	6	...........	-327.66
	723	144.8	-7.29918E-001	1.95798E-008	0.00000E+000	-7.30000E-001	1.46567E-003	6	...........	-327.66
	724	145	-7.19986E-001	2.30439E-008	0.00000E+000	-7.20000E-001	1.46003E-003	6	...........	-327.66
	725	145.2	-7.09908E-001	2.57601E-008	0.00000E+000	-7.10000E-001	1.46453E-003	6	...........	-327.66
	726	145.4	-6.99969E-001	2.74702E-008	0.00000E+000	-7.00000E-001	1.46557E-003	6	...........	-327.66
	727	145.6	-6.89963E-001	2.84325E-008	0.00000E+000	-6.90000E-001	1.47170E-003	6	...........	-327.66
	728	145.8	-6.79930E-001	2.85984E-008	0.00000E+000	-6.80000E-001	1.47153E-003	6	...........	-327.66
	729	146	-6.69882E-001	2.85526E-008	0.00000E+000	-6.70000E-001	1.46585E-003	6	...........	-327.66
	730	146.2	-6.59968E-001	2.82776E-008	0.00000E+000	-6.60000E-001	1.46437E-003	6	...........	-327.66
	731	146.4	-6.49923E-001	2.82494E-008	0.00000E+000	-6.50000E-001	1.46450E-003	6	...........	-327.66
	732	146.6	-6.39998E-001	2.82365E-008	0.00000E+000	-6.40000E-001	1.45926E-003	6	...........	-327.66
	733	146.8	-6.29915E-001	2.83532E-008	0.00000E+000	-6.30000E-001	1.46103E-003	6	...........	-327.66
	734	147	-6.19988E-001	2.83836E-008	0.00000E+000	-6.20000E-001	1.46978E-003	6	...........	-327.66
	735	147.2	-6.09998E-001	2.85518E-008	0.00000E+000	-6.10000E-001	1.47690E-003	6	...........	-327.66
	736	147.4	-6.00011E-001	2.87595E-008	0.00000E+000	-6.00000E-001	1.48387E-003	6	...........	-327.66
	737	147.6	-5.89969E-001	2.89830E-008	0.00000E+000	-5.90000E-001	1.47490E-003	6	...........	-327.66
	738	147.8	-5.79932E-001	2.91655E-008	0.00000E+000	-5.80000E-001	1.46887E-003	6	...........	-327.66
	739	148	-5.69990E-001	2.94850E-008	0.00000E+000	-5.70000E-001	1.46443E-003	6	...........	-327.66
	740	148.2	-5.60022E-001	2.97737E-008	0.00000E+000	-5.60000E-001	1.45776E-003	6	...........	-327.66
	741	148.4	-5.49905E-001	3.01213E-008	0.00000E+000	-5.50000E-001	1.46155E-003	6	...........	-327.66
	742	148.6	-5.40006E-001	3.03890E-008	0.00000E+000	-5.40000E-001	1.46930E-003	6	...........	-327.66
	743	148.8	-5.29982E-001	3.08392E-008	0.00000E+000	-5.30000E-001	1.47012E-003	6	...........	-327.66
	744	149	-5.20035E-001	3.11635E-008	0.00000E+000	-5.20000E-001	1.46263E-003	6	...........	-327.66
	745	149.2	-5.09964E-001	3.17000E-008	0.00000E+000	-5.10000E-001	1.46737E-003	6	...........	-327.66
	746	149.4	-4.99924E-001	3.21396E-008	0.00000E+000	-5.00000E-001	1.45803E-003	6	...........	-327.66
	747	149.6	-4.89990E-001	3.26212E-008	0.00000E+000	-4.90000E-001	1.46061E-003	6	...........	-327.66
	748	149.8	-4.80002E-001	3.30532E-008	0.00000E+000	-4.80000E-001	1.46085E-003	6	...........	-327.66
	749	150	-4.69878E-001	3.36746E-008	0.00000E+000	-4.70000E-001	1.45695E-003	6	...........	-327.66
	750	150.2	-4.59997E-001	3.42064E-008	0.00000E+000	-4.60000E-001	1.45986E-003	6	...........	-327.66
	751	150.4	-4.49940E-001	3.49326E-008	0.00000E+000	-4.50000E-001	1.46582E-003	6	...........	-327.66
	752	150.6	-4.40009E-001	3.54551E-008	0.00000E+000	-4.40000E-001	1.46567E-003	6	...........	-327.66
	753	150.8	-4.29991E-001	3.60010E-008	0.00000E+000	-4.30000E-001	1.46428E-003	6	...........	-327.66
	754	151	-4.19996E-001	3.65448E-008	0.00000E+000	-4.20000E-001	1.45831E-003	6	...........	-327.66
	755	151.2	-4.10004E-001	3.71927E-008	0.00000E+000	-4.10000E-001	1.46081E-003	6	...........	-327.66
	756	151.4	-3.99996E-001	3.77894E-008	0.00000E+000	-4.00000E-001	1.45686E-003	6	...........	-327.66
	757	151.6	-3.89948E-001	3.83984E-008	0.00000E+000	-3.90000E-001	1.45928E-003	6	...........	-327.66
	758	151.8	-3.80009E-001	3.89328E-008	0.00000E+000	-3.80000E-001	1.46650E-003	6	...........	-327.66
	759	152	-3.69916E-001	3.96458E-008	0.00000E+000	-3.70000E-001	1.47252E-003	6	...........	-327.66
	760	152.2	-3.60018E-001	4.02166E-008	0.00000E+000	-3.60000E-001	1.46665E-003	6	...........	-327.66
	761	152.4	-3.50000E-001	4.08881E-008	0.00000E+000	-3.50000E-001	1.46430E-003	6	...........	-327.66
	762	152.6	-3.40015E-001	4.13492E-008	0.00000E+000	-3.40000E-001	1.45993E-003	6	...........	-327.66
	763	152.8	-3.30013E-001	4.19939E-008	0.00000E+000	-3.30000E-001	1.45448E-003	6	...........	-327.66
	764	153	-3.20020E-001	4.25183E-008	0.00000E+000	-3.20000E-001	1.45623E-003	6	...........	-327.66
	765	153.2	-3.09994E-001	4.31115E-008	0.00000E+000	-3.10000E-001	1.44589E-003	6	...........	-327.66
	766	153.4	-2.99998E-001	4.35538E-008	0.00000E+000	-3.00000E-001	1.45543E-003	6	...........	-327.66
	767	153.6	-2.89969E-001	4.40745E-008	0.00000E+000	-2.90000E-001	1.46783E-003	6	...........	-327.66
	768	153.8	-2.80023E-001	4.45186E-008	0.00000E+000	-2.80000E-001	1.45831E-003	6	...........	-327.66
	769	154	-2.69951E-001	4.50349E-008	0.00000E+000	-2.70000E-001	1.45373E-003	6	...........	-327.66
	770	154.2	-2.60006E-001	4.53682E-008	0.00000E+000	-2.60000E-001	1.44926E-003	6	...........	-327.66
	771	154.4	-2.50012E-001	4.57801E-008	0.00000E+000	-2.50000E-001	1.45513E-003	6	...........	-327.66
	772	154.6	-2.40028E-001	4.62151E-008	0.00000E+000	-2.40000E-001	1.45596E-003	6	...........	-327.66
	773	154.8	-2.29994E-001	4.66522E-008	0.00000E+000	-2.30000E-001	1.45281E-003	6	...........	-327.66
	774	155	-2.19936E-001	4.69374E-008	0.00000E+000	-2.20000E-001	1.47742E-003	6	...........	-327.66
	775	155.2	-2.10003E-001	4.72927E-008	0.00000E+000	-2.10000E-001	1.46455E-003	6	...........	-327.66
	776	155.4	-2.00056E-001	4.75105E-008	0.00000E+000	-2.00000E-001	1.46180E-003	6	...........	-327.66
	777	155.6	-1.89914E-001	4.79053E-008	0.00000E+000	-1.90000E-001	1.46943E-003	6	...........	-327.66
	778	155.8	-1.80018E-001	4.81459E-008	0.00000E+000	-1.80000E-001	1.46250E-003	6	...........	-327.66
	779	156	-1.70014E-001	4.84771E-008	0.00000E+000	-1.70000E-001	1.46025E-003	6	...........	-327.66
	780	156.2	-1.60034E-001	4.86160E-008	0.00000E+000	-1.60000E-001	1.45273E-003	6	...........	-327.66
	781	156.4	-1.50030E-001	4.89239E-008	0.00000E+000	-1.50000E-001	1.46258E-003	6	...........	-327.66
	782	156.6	-1.40005E-001	4.91894E-008	0.00000E+000	-1.40000E-001	1.46958E-003	6	...........	-327.66
	783	156.8	-1.30024E-001	4.94111E-008	0.00000E+000	-1.30000E-001	1.46670E-003	6	...........	-327.66
	784	157	-1.20017E-001	4.97052E-008	0.00000E+000	-1.20000E-001	1.46208E-003	6	...........	-327.66
	785	157.2	-1.09995E-001	4.97829E-008	0.00000E+000	-1.10000E-001	1.46588E-003	6	...........	-327.66
	786	157.4	-1.00017E-001	4.99479E-008	0.00000E+000	-1.00000E-001	1.46341E-003	6	...........	-327.66
	787	157.6	-8.99979E-002	5.03578E-008	0.00000E+000	-9.00000E-002	1.46530E-003	6	...........	-327.66
	788	157.8	-8.00243E-002	5.05098E-008	0.00000E+000	-8.00000E-002	1.45308E-003	6	...........	-327.66
	789	158	-7.00003E-002	5.05622E-008	0.00000E+000	-7.00000E-002	1.45786E-003	6	...........	-327.66
	790	158.2	-6.00185E-002	5.06118E-008	0.00000E+000	-6.00000E-002	1.46562E-003	6	...........	-327.66
	791	158.4	-5.00309E-002	5.08822E-008	0.00000E+000	-5.00000E-002	1.45716E-003	6	...........	-327.66
	792	158.6	-3.99712E-002	5.11808E-008	0.00000E+000	-4.00000E-002	1.46892E-003	6	...........	-327.66
	793	158.8	-2.99732E-002	5.13962E-008	0.00000E+000	-3.00000E-002	1.46153E-003	6	...........	-327.66
	794	159	-2.00018E-002	5.12733E-008	0.00000E+000	-2.00000E-002	1.46947E-003	6	...........	-327.66
	795	159.2	-1.00075E-002	5.15014E-008	0.00000E+000	-1.00000E-002	1.45269E-003	6	...........	-327.66
	796	159.4	-2.61923E-005	5.16621E-008	0.00000E+000	-1.49012E-008	1.45613E-003	6	...........	-327.66
	797	159.6	1.00182E-002	5.18776E-008	0.00000E+000	9.99999E-003	1.45431E-003	6	...........	-327.66
	798	159.8	1.99934E-002	5.18793E-008	0.00000E+000	2.00000E-002	1.46863E-003	6	...........	-327.66
	799	160	2.99967E-002	5.19658E-008	0.00000E+000	3.00000E-002	1.46810E-003	6	...........	-327.66
	800	160.2	3.97913E-002	5.21736E-008	0.00000E+000	4.00000E-002	1.47087E-003	6	...........	-327.66
	801	160.4	5.00247E-002	5.23893E-008	0.00000E+000	5.00000E-002	1.46422E-003	6	...........	-327.66
	802	160.6	6.00050E-002	5.24615E-008	0.00000E+000	6.00000E-002	1.46483E-003	6	...........	-327.66
	803	160.8	7.00046E-002	5.26391E-008	0.00000E+000	7.00000E-002	1.46316E-003	6	...........	-327.66
	804	161	7.99721E-002	5.28339E-008	0.00000E+000	8.00000E-002	1.46051E-003	6	...........	-327.66
	805	161.2	9.00798E-002	5.30499E-008	0.00000E+000	9.00000E-002	1.46223E-003	6	...........	-327.66
	806	161.4	9.99872E-002	5.31466E-008	0.00000E+000	1.00000E-001	1.47002E-003	6	...........	-327.66
	807	161.6	1.09997E-001	5.34453E-008	0.00000E+000	1.10000E-001	1.46970E-003	6	...........	-327.66
	808	161.8	1.19999E-001	5.36401E-008	0.00000E+000	1.20000E-001	1.46470E-003	6	...........	-327.66
	809	162	1.30016E-001	5.39622E-008	0.00000E+000	1.30000E-001	1.46918E-003	6	...........	-327.66
	810	162.2	1.40044E-001	5.41129E-008	0.00000E+000	1.40000E-001	1.46687E-003	6	...........	-327.66
	811	162.4	1.50012E-001	5.43777E-008	0.00000E+000	1.50000E-001	1.45943E-003	6	...........	-327.66
	812	162.6	1.59980E-001	5.45820E-008	0.00000E+000	1.60000E-001	1.45515E-003	6	...........	-327.66
	813	162.8	1.70062E-001	5.48749E-008	0.00000E+000	1.70000E-001	1.45958E-003	6	...........	-327.66
	814	163	1.79988E-001	5.49767E-008	0.00000E+000	1.80000E-001	1.45961E-003	6	...........	-327.66
	815	163.2	1.89997E-001	5.52163E-008	0.00000E+000	1.90000E-001	1.46467E-003	6	...........	-327.66
	816	163.4	1.99982E-001	5.54274E-008	0.00000E+000	2.00000E-001	1.46963E-003	6	...........	-327.66
	817	163.6	2.09979E-001	5.56524E-008	0.00000E+000	2.10000E-001	1.46301E-003	6	...........	-327.66
	818	163.8	2.19939E-001	5.57427E-008	0.00000E+000	2.20000E-001	1.46932E-003	6	...........	-327.66
	819	164	2.29993E-001	5.59467E-008	0.00000E+000	2.30000E-001	1.45796E-003	6	...........	-327.66
	820	164.2	2.39963E-001	5.61563E-008	0.00000E+000	2.40000E-001	1.46658E-003	6	...........	-327.66
	821	164.4	2.50011E-001	5.63956E-008	0.00000E+000	2.50000E-001	1.45233E-003	6	...........	-327.66
	822	164.6	2.59973E-001	5.64666E-008	0.00000E+000	2.60000E-001	1.46908E-003	6	...........	-327.66
	823	164.8	2.70003E-001	5.67749E-008	0.00000E+000	2.70000E-001	1.46727E-003	6	...........	-327.66
	824	165	2.79960E-001	5.69380E-008	0.00000E+000	2.80000E-001	1.46525E-003	6	...........	-327.66
	825	165.2	2.89971E-001	5.72335E-008	0.00000E+000	2.90000E-001	1.46642E-003	6	...........	-327.66
	826	165.4	2.99977E-001	5.73648E-008	0.00000E+000	3.00000E-001	1.45976E-003	6	...........	-327.66
	827	165.6	3.09984E-001	5.76488E-008	0.00000E+000	3.10000E-001	1.46845E-003	6	...........	-327.66
	828	165.8	3.19973E-001	5.78958E-008	0.00000E+000	3.20000E-001	1.45820E-003	6	...........	-327.66
	829	166	3.29992E-001	5.82303E-008	0.00000E+000	3.30000E-001	1.46255E-003	6	...........	-327.66
	830	166.2	3.39981E-001	5.84075E-008	0.00000E+000	3.40000E-001	1.46675E-003	6	...........	-327.66
	831	166.4	3.50012E-001	5.87001E-008	0.00000E+000	3.50000E-001	1.46747E-003	6	...........	-327.66
	832	166.6	3.59935E-001	5.90526E-008	0.00000E+000	3.60000E-001	1.46263E-003	6	...........	-327.66
	833	166.8	3.69976E-001	5.94130E-008	0.00000E+000	3.70000E-001	1.46256E-003	6	...........	-327.66
	834	167	3.79981E-001	5.96633E-008	0.00000E+000	3.80000E-001	1.46166E-003	6	...........	-327.66
	835	167.2	3.89971E-001	6.00141E-008	0.00000E+000	3.90000E-001	1.46100E-003	6	...........	-327.66
	836	167.4	3.99949E-001	6.04317E-008	0.00000E+000	4.00000E-001	1.47153E-003	6	...........	-327.66
	837	167.6	4.09968E-001	6.08050E-008	0.00000E+000	4.10000E-001	1.45556E-003	6	...........	-327.66
	838	167.8	4.19987E-001	6.11273E-008	0.00000E+000	4.20000E-001	1.46485E-003	6	...........	-327.66
	839	168	4.29981E-001	6.15249E-008	0.00000E+000	4.30000E-001	1.46652E-003	6	...........	-327.66
	840	168.2	4.39941E-001	6.19941E-008	0.00000E+000	4.40000E-001	1.46328E-003	6	...........	-327.66
	841	168.4	4.50001E-001	6.24569E-008	0.00000E+000	4.50000E-001	1.46158E-003	6	...........	-327.66
	842	168.6	4.59974E-001	6.28314E-008	0.00000E+000	4.60000E-001	1.45776E-003	6	...........	-327.66
	843	168.8	4.69951E-001	6.33156E-008	0.00000E+000	4.70000E-001	1.46800E-003	6	...........	-327.66
	844	169	4.79952E-001	6.37809E-008	0.00000E+000	4.80000E-001	1.45598E-003	6	...........	-327.66
	845	169.2	4.89958E-001	6.43127E-008	0.00000E+000	4.90000E-001	1.46328E-003	6	...........	-327.66
	846	169.4	4.99986E-001	6.48362E-008	0.00000E+000	5.00000E-001	1.46613E-003	6	...........	-327.66
	847	169.6	5.09967E-001	6.54033E-008	0.00000E+000	5.10000E-001	1.46838E-003	6	...........	-327.66
	848	169.8	5.19953E-001	6.60275E-008	0.00000E+000	5.20000E-001	1.47150E-003	6	...........	-327.66
	849	170	5.30002E-001	6.66923E-008	0.00000E+000	5.30000E-001	1.47003E-003	6	...........	-327.66
	850	170.2	5.39977E-001	6.73481E-008	0.00000E+000	5.40000E-001	1.46527E-003	6	...........	-327.66
	851	170.4	5.49978E-001	6.81496E-008	0.00000E+000	5.50000E-001	1.45991E-003	6	...........	-327.66
	852	170.6	5.59964E-001	6.90252E-008	0.00000E+000	5.60000E-001	1.45069E-003	6	...........	-327.66
	853	170.8	5.69975E-001	6.99937E-008	0.00000E+000	5.70000E-001	1.45491E-003	6	...........	-327.66
	854	171	5.79975E-001	7.09764E-008	0.00000E+000	5.80000E-001	1.46256E-003	6	...........	-327.66
	855	171.2	5.89961E-001	7.21977E-008	0.00000E+000	5.90000E-001	1.45239E-003	6	...........	-327.66
	856	171.4	5.99962E-001	7.34942E-008	0.00000E+000	6.00000E-001	1.46457E-003	6	...........	-327.66
CURVE4	TABLE
	Pt	T	Vf	Im	Vu	Sig	Ach	IERange	Over	Temp
	#	s	V vs. Ref.	A	V	V	V	#	bits	deg C
	857	171.6	5.89989E-001	-5.81533E-009	0.00000E+000	5.90000E-001	1.45895E-003	6	...........	-327.66
	858	171.8	5.79994E-001	-1.33230E-008	0.00000E+000	5.80000E-001	1.46543E-003	6	...........	-327.66
	859	172	5.69992E-001	-1.78254E-008	0.00000E+000	5.70000E-001	1.45563E-003	6	...........	-327.66
	860	172.2	5.59959E-001	-2.11082E-008	0.00000E+000	5.60000E-001	1.45301E-003	6	...........	-327.66
	861	172.4	5.49995E-001	-2.34800E-008	0.00000E+000	5.50000E-001	1.45028E-003	6	...........	-327.66
	862	172.6	5.39998E-001	-2.53332E-008	0.00000E+000	5.40000E-001	1.45063E-003	6	...........	-327.66
	863	172.8	5.30024E-001	-2.67218E-008	0.00000E+000	5.30000E-001	1.47167E-003	6	...........	-327.66
	864	173	5.19985E-001	-2.79179E-008	0.00000E+000	5.20000E-001	1.47117E-003	6	...........	-327.66
	865	173.2	5.09974E-001	-2.89022E-008	0.00000E+000	5.10000E-001	1.46475E-003	6	...........	-327.66
	866	173.4	5.00011E-001	-2.97310E-008	0.00000E+000	5.00000E-001	1.46191E-003	6	...........	-327.66
	867	173.6	4.89980E-001	-3.04049E-008	0.00000E+000	4.90000E-001	1.44211E-003	6	...........	-327.66
	868	173.8	4.79966E-001	-3.10396E-008	0.00000E+000	4.80000E-001	1.45071E-003	6	...........	-327.66
	869	174	4.69979E-001	-3.15668E-008	0.00000E+000	4.70000E-001	1.45183E-003	6	...........	-327.66
	870	174.2	4.59998E-001	-3.21292E-008	0.00000E+000	4.60000E-001	1.46060E-003	6	...........	-327.66
	871	174.4	4.50057E-001	-3.25150E-008	0.00000E+000	4.50000E-001	1.46413E-003	6	...........	-327.66
	872	174.6	4.39948E-001	-3.29854E-008	0.00000E+000	4.40000E-001	1.46011E-003	6	...........	-327.66
	873	174.8	4.29997E-001	-3.33341E-008	0.00000E+000	4.30000E-001	1.46748E-003	6	...........	-327.66
	874	175	4.20050E-001	-3.36814E-008	0.00000E+000	4.20000E-001	1.45841E-003	6	...........	-327.66
	875	175.2	4.09994E-001	-3.39209E-008	0.00000E+000	4.10000E-001	1.45463E-003	6	...........	-327.66
	876	175.4	3.99982E-001	-3.42761E-008	0.00000E+000	4.00000E-001	1.46195E-003	6	...........	-327.66
	877	175.6	3.89998E-001	-3.46190E-008	0.00000E+000	3.90000E-001	1.45868E-003	6	...........	-327.66
	878	175.8	3.80001E-001	-3.48614E-008	0.00000E+000	3.80000E-001	1.46115E-003	6	...........	-327.66
	879	176	3.70037E-001	-3.50532E-008	0.00000E+000	3.70000E-001	1.45770E-003	6	...........	-327.66
	880	176.2	3.59966E-001	-3.53622E-008	0.00000E+000	3.60000E-001	1.46165E-003	6	...........	-327.66
	881	176.4	3.50029E-001	-3.55936E-008	0.00000E+000	3.50000E-001	1.46115E-003	6	...........	-327.66
	882	176.6	3.40014E-001	-3.58247E-008	0.00000E+000	3.40000E-001	1.45746E-003	6	...........	-327.66
	883	176.8	3.30026E-001	-3.59368E-008	0.00000E+000	3.30000E-001	1.45363E-003	6	...........	-327.66
	884	177	3.19990E-001	-3.62344E-008	0.00000E+000	3.20000E-001	1.45388E-003	6	...........	-327.66
	885	177.2	3.09998E-001	-3.64327E-008	0.00000E+000	3.10000E-001	1.45630E-003	6	...........	-327.66
	886	177.4	3.00002E-001	-3.66960E-008	0.00000E+000	3.00000E-001	1.46427E-003	6	...........	-327.66
	887	177.6	2.90012E-001	-3.67656E-008	0.00000E+000	2.90000E-001	1.46708E-003	6	...........	-327.66
	888	177.8	2.79987E-001	-3.70116E-008	0.00000E+000	2.80000E-001	1.45244E-003	6	...........	-327.66
	889	178	2.70096E-001	-3.71668E-008	0.00000E+000	2.70000E-001	1.45588E-003	6	...........	-327.66
	890	178.2	2.60008E-001	-3.74259E-008	0.00000E+000	2.60000E-001	1.47122E-003	6	...........	-327.66
	891	178.4	2.50059E-001	-3.75061E-008	0.00000E+000	2.50000E-001	1.45708E-003	6	...........	-327.66
	892	178.6	2.40008E-001	-3.77768E-008	0.00000E+000	2.40000E-001	1.45385E-003	6	...........	-327.66
	893	178.8	2.30003E-001	-3.79506E-008	0.00000E+000	2.30000E-001	1.45686E-003	6	...........	-327.66
	894	179	2.20005E-001	-3.81586E-008	0.00000E+000	2.20000E-001	1.45296E-003	6	...........	-327.66
	895	179.2	2.10008E-001	-3.82694E-008	0.00000E+000	2.10000E-001	1.46755E-003	6	...........	-327.66
	896	179.4	2.00001E-001	-3.84503E-008	0.00000E+000	2.00000E-001	1.46186E-003	6	...........	-327.66
	897	179.6	1.90064E-001	-3.86038E-008	0.00000E+000	1.90000E-001	1.47000E-003	6	...........	-327.66
	898	179.8	1.80019E-001	-3.88248E-008	0.00000E+000	1.80000E-001	1.46060E-003	6	...........	-327.66
	899	180	1.70115E-001	-3.89401E-008	0.00000E+000	1.70000E-001	1.46398E-003	6	...........	-327.66
	900	180.2	1.60016E-001	-3.91215E-008	0.00000E+000	1.60000E-001	1.45061E-003	6	...........	-327.66