File: Test_Data_Files/20250424_D_CHI105_2mmAu_E000_PBSarg_CV100.DTA
EXPLAIN
TAG	CV
TITLE	LABEL	Cyclic Voltammetry	Test &Identifier
DATE	LABEL	4/24/2025	Date
TIME	LABEL	16:56:58	Time
NOTES	NOTES	3	&Notes...

PSTAT	PSTAT	IFC1010-32247	Potentiostat
VINIT	POTEN	0.00000E+000	T	Initial &E (V)
VLIMIT1	POTEN	-6.00000E-001	F	Scan Limit &1 (V)
VLIMIT2	POTEN	8.00000E-001	F	Scan Limit &2 (V)
VFINAL	POTEN	0.00000E+000	T	Final &E (V)
SCANRATE	QUANT	9.99998E+001	&Scan Rate (mV/s)
STEPSIZE	QUANT	1.00000E+001	St&ep Size (mV)
CYCLES	IQUANT	3	C&ycles (#)
IMODE	SELECTOR	1	I/E Range &Mode
IRANGE	QUANT	1.00000E-002	&Max Current (mA)
AREA	QUANT	1.00000E+000	Electrode &Area (cm^2)
ELECTRODETYPE	SELECTOR	0	Electrode Type
STRIPPING	TOGGLE	F	Used for Stripping
CONDIT	TWOPARAM	F	1.50000E+001	0.00000E+000	Conditionin&g	Time(s)	E(V)
DELAY	TWOPARAM	T	1.50000E+001	0.00000E+000	Init. De&lay	Time(s)	Stab.(mV/s)
EQDELAY	QUANT	0.00000E+000	Equil. &Time (s)
IRCOMP	SELECTOR	0	IRCom&p
PFCOR	QUANT	5.00000E+001	PF Corr. (ohm)
SAMPLINGMODE	SELECTOR	2	Sampling &Mode
OCVCURVE	TABLE	58
	Pt	T	Vf	Vm	Ach	Over	Temp
	#	s	V vs. Ref.	V	V	bits	deg C
	0	0.258333	2.49770E-001	2.49770E-001	0.00000E+000	...........	1367.91
	1	0.516667	2.49769E-001	2.49702E-001	0.00000E+000	...........	1367.48
	2	0.775	2.49761E-001	2.49657E-001	0.00000E+000	...........	1367.48
	3	1.03333	2.49741E-001	2.49598E-001	0.00000E+000	...........	1367.48
	4	1.29167	2.49705E-001	2.49537E-001	0.00000E+000	...........	1367.48
	5	1.55	2.49657E-001	2.49485E-001	0.00000E+000	...........	1367.83
	6	1.80833	2.49602E-001	2.49418E-001	0.00000E+000	...........	1367.83
	7	2.06667	2.49545E-001	2.49383E-001	0.00000E+000	...........	1367.83
	8	2.325	2.49488E-001	2.49312E-001	0.00000E+000	...........	1367.83
	9	2.58333	2.49432E-001	2.49273E-001	0.00000E+000	...........	1367.91
	10	2.84167	2.49377E-001	2.49192E-001	0.00000E+000	...........	1367.91
	11	3.1	2.49322E-001	2.49152E-001	0.00000E+000	...........	1367.91
	12	3.35833	2.49266E-001	2.49107E-001	0.00000E+000	...........	1367.91
	13	3.61667	2.49211E-001	2.49054E-001	0.00000E+000	...........	1367.91
	14	3.875	2.49158E-001	2.48991E-001	0.00000E+000	...........	1367.91
	15	4.13333	2.49106E-001	2.48929E-001	0.00000E+000	...........	1367.91
	16	4.39167	2.49052E-001	2.48864E-001	0.00000E+000	...........	1367.91
	17	4.65	2.48994E-001	2.48821E-001	0.00000E+000	...........	1367.91
	18	4.90833	2.48935E-001	2.48765E-001	0.00000E+000	...........	1367.91
	19	5.16667	2.48878E-001	2.48718E-001	0.00000E+000	...........	1367.91
	20	5.425	2.48823E-001	2.48656E-001	0.00000E+000	...........	1367.91
	21	5.68333	2.48770E-001	2.48608E-001	0.00000E+000	...........	1367.91
	22	5.94167	2.48717E-001	2.48537E-001	0.00000E+000	...........	1367.91
	23	6.2	2.48662E-001	2.48488E-001	0.00000E+000	...........	1367.91
	24	6.45833	2.48606E-001	2.48433E-001	0.00000E+000	...........	1367.91
	25	6.71667	2.48549E-001	2.48373E-001	0.00000E+000	...........	1367.91
	26	6.975	2.48492E-001	2.48322E-001	0.00000E+000	...........	1367.91
	27	7.23333	2.48436E-001	2.48281E-001	0.00000E+000	...........	1367.91
	28	7.49167	2.48382E-001	2.48212E-001	0.00000E+000	...........	1367.87
	29	7.75	2.48329E-001	2.48168E-001	0.00000E+000	...........	1367.83
	30	8.00833	2.48276E-001	2.48106E-001	0.00000E+000	...........	1367.83
	31	8.26667	2.48222E-001	2.48039E-001	0.00000E+000	...........	1367.83
	32	8.525	2.48166E-001	2.47989E-001	0.00000E+000	...........	1367.83
	33	8.78333	2.48108E-001	2.47948E-001	0.00000E+000	...........	1367.83
	34	9.04167	2.48051E-001	2.47879E-001	0.00000E+000	...........	1367.83
	35	9.3	2.47996E-001	2.47826E-001	0.00000E+000	...........	1367.83
	36	9.5583	2.47942E-001	2.47788E-001	0.00000E+000	...........	1367.83
	37	9.8167	2.47889E-001	2.47732E-001	0.00000E+000	...........	1367.83
	38	10.075	2.47837E-001	2.47673E-001	0.00000E+000	...........	1367.83
	39	10.3333	2.47785E-001	2.47615E-001	0.00000E+000	...........	1367.83
	40	10.5917	2.47733E-001	2.47569E-001	0.00000E+000	...........	1367.91
	41	10.85	2.47678E-001	2.47519E-001	0.00000E+000	...........	1367.91
	42	11.1083	2.47625E-001	2.47464E-001	0.00000E+000	...........	1367.91
	43	11.3667	2.47572E-001	2.47397E-001	0.00000E+000	...........	1367.91
	44	11.625	2.47519E-001	2.47360E-001	0.00000E+000	...........	1367.91
	45	11.8833	2.47465E-001	2.47308E-001	0.00000E+000	...........	1367.91
	46	12.1417	2.47412E-001	2.47245E-001	0.00000E+000	...........	1367.91
	47	12.4	2.47360E-001	2.47191E-001	0.00000E+000	...........	1367.91
	48	12.6583	2.47307E-001	2.47148E-001	0.00000E+000	...........	1367.91
	49	12.9167	2.47253E-001	2.47099E-001	0.00000E+000	...........	1367.91
	50	13.175	2.47201E-001	2.47046E-001	0.00000E+000	...........	1367.91
	51	13.4333	2.47151E-001	2.47006E-001	0.00000E+000	...........	1367.91
	52	13.6917	2.47102E-001	2.46953E-001	0.00000E+000	...........	1367.91
	53	13.95	2.47053E-001	2.46906E-001	0.00000E+000	...........	1367.91
	54	14.2083	2.47005E-001	2.46847E-001	0.00000E+000	...........	1367.91
	55	14.4667	2.46956E-001	2.46804E-001	0.00000E+000	...........	1367.89
	56	14.725	2.46906E-001	2.46737E-001	0.00000E+000	...........	1367.48
	57	14.9833	2.46854E-001	2.46695E-001	0.00000E+000	...........	1367.48
EOC	QUANT	0.2468544	Open Circuit (V)
PSTATMODEL	IQUANT	64	Pstat Model
PSTATSECTION	LABEL	IFC1010-32247	Pstat Section
PSTATSERIALNO	LABEL	32247	Pstat Serial Number
CTRLMODE	IQUANT	1	Control Mode
ELECTROMETER	IQUANT	0	RE=0 or CS=1
IESTAB	IQUANT	2	I/E Stability
CASPEED	IQUANT	4	Control Amp Speed
CONVENTION	IQUANT	1	Current Convention
ICHRANGE	IQUANT	2	Ich Range
ICHRANGEMODE	TOGGLE	F	Ich Auto Range
ICHOFFSETENABLE	TOGGLE	F	Ich Offset Enable
ICHOFFSET	QUANT	0	Ich Offset (V)
ICHFILTER	IQUANT	3	Ich Filter
VCHRANGE	IQUANT	2	Vch Range
VCHRANGEMODE	TOGGLE	F	Vch Auto Range
VCHOFFSETENABLE	TOGGLE	F	Vch Offset Enable
VCHOFFSET	QUANT	0	Vch Offset (V)
VCHFILTER	IQUANT	3	Vch Filter
IERANGELOWERLIMIT	IQUANT	4	I/E Range Lower Limit
IERANGEMODE	TOGGLE	F	I/E AutoRange
IERANGE	IQUANT	8	I/E Range
ACHSELECT	IQUANT	0	Ach Select
ACHRANGE	IQUANT	2	Ach Range
ACHOFFSETENABLE	TOGGLE	F	Ach Offset Enable
ACHOFFSET	QUANT	0	Ach Offset (V)
ACHFILTER	IQUANT	1	Ach Filter
SENSECABLEID	IQUANT	14	Sense Cable ID
PWRCABLEID	IQUANT	14	Power Cable ID
DCCALDATE	LABEL	11/18/2024	DC Calibration Date
ACCALDATE	LABEL	4/18/2022	AC Calibration Date
FRAMEWORKVERSION	LABEL	7.10.3	Framework Version
INSTRUMENTVERSION	LABEL	4.91	Instrument Version
COMMVERSION	LABEL	3.10	Communications Version
CPUPLDVERSION	LABEL	2.22	CPU PLD Version
CTRLPLDVERSION	LABEL	0.00	CTRL PLD Version
PSTATPLDVERSION	LABEL	0.00	PSTAT PLD Version
CURVE1	TABLE
	Pt	T	Vf	Im	Vu	Sig	Ach	IERange	Over	Temp
	#	s	V vs. Ref.	A	V	V	V	#	bits	deg C
	0	0.1	2.46881E-001	-5.34373E-010	0.00000E+000	2.46836E-001	0.00000E+000	8	...........	1367.57
	1	0.2	2.36897E-001	-6.21317E-007	0.00000E+000	2.36838E-001	0.00000E+000	8	...........	1367.57
	2	0.3	2.26897E-001	-6.38536E-007	0.00000E+000	2.26841E-001	0.00000E+000	8	...........	1367.57
	3	0.4	2.16880E-001	-6.49495E-007	0.00000E+000	2.16843E-001	0.00000E+000	8	...........	1367.57
	4	0.5	2.06908E-001	-6.57309E-007	0.00000E+000	2.06846E-001	0.00000E+000	8	...........	1367.57
	5	0.6	1.96907E-001	-6.59953E-007	0.00000E+000	1.96849E-001	0.00000E+000	8	...........	1367.57
	6	0.7	1.86908E-001	-6.59438E-007	0.00000E+000	1.86851E-001	0.00000E+000	8	...........	1367.57
	7	0.8	1.76893E-001	-6.57791E-007	0.00000E+000	1.76854E-001	0.00000E+000	8	...........	1367.68
	8	0.9	1.66906E-001	-6.55027E-007	0.00000E+000	1.66856E-001	0.00000E+000	8	...........	1367.91
	9	1	1.56924E-001	-6.50097E-007	0.00000E+000	1.56859E-001	0.00000E+000	8	...........	1367.91
	10	1.1	1.46926E-001	-6.43288E-007	0.00000E+000	1.46861E-001	0.00000E+000	8	...........	1367.91
	11	1.2	1.36912E-001	-6.36150E-007	0.00000E+000	1.36864E-001	0.00000E+000	8	...........	1367.91
	12	1.3	1.26900E-001	-6.32362E-007	0.00000E+000	1.26866E-001	0.00000E+000	8	...........	1367.91
	13	1.4	1.16930E-001	-6.30786E-007	0.00000E+000	1.16869E-001	0.00000E+000	8	...........	1367.91
	14	1.5	1.06928E-001	-6.31949E-007	0.00000E+000	1.06872E-001	0.00000E+000	8	...........	1367.91
	15	1.6	9.69236E-002	-6.34791E-007	0.00000E+000	9.68742E-002	0.00000E+000	8	...........	1367.91
	16	1.7	8.69160E-002	-6.38723E-007	0.00000E+000	8.68767E-002	0.00000E+000	8	...........	1367.91
	17	1.8	7.69240E-002	-6.43905E-007	0.00000E+000	7.68793E-002	0.00000E+000	8	...........	1367.71
	18	1.9	6.68728E-002	-6.52003E-007	0.00000E+000	6.68319E-002	0.00000E+000	8	...........	1367.31
	19	2	5.68741E-002	-6.56042E-007	0.00000E+000	5.68344E-002	0.00000E+000	8	...........	1367.31
	20	2.1	4.68759E-002	-6.63188E-007	0.00000E+000	4.68370E-002	0.00000E+000	8	...........	1367.31
	21	2.2	3.68863E-002	-6.70157E-007	0.00000E+000	3.68395E-002	0.00000E+000	8	...........	1367.31
	22	2.3	2.69120E-002	-6.77638E-007	0.00000E+000	2.68421E-002	0.00000E+000	8	...........	1367.31
	23	2.4	1.68909E-002	-6.85611E-007	0.00000E+000	1.68447E-002	0.00000E+000	8	...........	1367.31
	24	2.5	6.88837E-003	-6.94902E-007	0.00000E+000	6.84722E-003	0.00000E+000	8	...........	1367.31
	25	2.6	-3.12900E-003	-7.04872E-007	0.00000E+000	-3.15022E-003	0.00000E+000	8	...........	1367.31
	26	2.7	-1.31243E-002	-7.15479E-007	0.00000E+000	-1.31477E-002	0.00000E+000	8	...........	1367.31
	27	2.8	-2.31222E-002	-7.27118E-007	0.00000E+000	-2.31451E-002	0.00000E+000	8	...........	1367.31
	28	2.9	-3.31310E-002	-7.38559E-007	0.00000E+000	-3.31425E-002	0.00000E+000	8	...........	1367.31
	29	3	-4.31271E-002	-7.48567E-007	0.00000E+000	-4.31400E-002	0.00000E+000	8	...........	1367.31
	30	3.1	-5.31280E-002	-7.55424E-007	0.00000E+000	-5.31374E-002	0.00000E+000	8	...........	1367.31
	31	3.2	-6.31201E-002	-7.59900E-007	0.00000E+000	-6.31349E-002	0.00000E+000	8	...........	1367.31
	32	3.3	-7.31204E-002	-7.67528E-007	0.00000E+000	-7.31323E-002	0.00000E+000	8	...........	1367.31
	33	3.4	-8.31168E-002	-7.76050E-007	0.00000E+000	-8.31297E-002	0.00000E+000	8	...........	1367.31
	34	3.5	-9.31226E-002	-7.87195E-007	0.00000E+000	-9.31272E-002	0.00000E+000	8	...........	1367.31
	35	3.6	-1.03137E-001	-7.99864E-007	0.00000E+000	-1.03125E-001	0.00000E+000	8	...........	1367.31
	36	3.7	-1.13096E-001	-8.14392E-007	0.00000E+000	-1.13122E-001	0.00000E+000	8	...........	1367.31
	37	3.8	-1.23133E-001	-8.34835E-007	0.00000E+000	-1.23169E-001	0.00000E+000	8	...........	1367.31
	38	3.9	-1.33138E-001	-8.51661E-007	0.00000E+000	-1.33167E-001	0.00000E+000	8	...........	1367.31
	39	4	-1.43141E-001	-8.71155E-007	0.00000E+000	-1.43164E-001	0.00000E+000	8	...........	1367.31
	40	4.1	-1.53139E-001	-8.91041E-007	0.00000E+000	-1.53162E-001	0.00000E+000	8	...........	1367.31
	41	4.2	-1.63143E-001	-9.10480E-007	0.00000E+000	-1.63159E-001	0.00000E+000	8	...........	1367.31
	42	4.3	-1.73123E-001	-9.27902E-007	0.00000E+000	-1.73157E-001	0.00000E+000	8	...........	1367.31
	43	4.4	-1.83148E-001	-9.43284E-007	0.00000E+000	-1.83154E-001	0.00000E+000	8	...........	1367.31
	44	4.5	-1.93142E-001	-9.55897E-007	0.00000E+000	-1.93152E-001	0.00000E+000	8	...........	1367.31
	45	4.6	-2.03126E-001	-9.66623E-007	0.00000E+000	-2.03149E-001	0.00000E+000	8	...........	1367.31
	46	4.7	-2.13133E-001	-9.73441E-007	0.00000E+000	-2.13146E-001	0.00000E+000	8	...........	1367.31
	47	4.8	-2.23122E-001	-9.78870E-007	0.00000E+000	-2.23144E-001	0.00000E+000	8	...........	1367.31
	48	4.9	-2.33135E-001	-9.82502E-007	0.00000E+000	-2.33141E-001	0.00000E+000	8	...........	1367.31
	49	5	-2.43125E-001	-9.83776E-007	0.00000E+000	-2.43139E-001	0.00000E+000	8	...........	1367.31
	50	5.1	-2.53118E-001	-9.84668E-007	0.00000E+000	-2.53136E-001	0.00000E+000	8	...........	1367.31
	51	5.2	-2.63122E-001	-9.82704E-007	0.00000E+000	-2.63134E-001	0.00000E+000	8	...........	1367.31
	52	5.3	-2.73108E-001	-9.82070E-007	0.00000E+000	-2.73131E-001	0.00000E+000	8	...........	1367.31
	53	5.4	-2.83126E-001	-9.80146E-007	0.00000E+000	-2.83129E-001	0.00000E+000	8	...........	1367.31
	54	5.5	-2.93105E-001	-9.77118E-007	0.00000E+000	-2.93126E-001	0.00000E+000	8	...........	1367.31
	55	5.6	-3.03105E-001	-9.74920E-007	0.00000E+000	-3.03123E-001	0.00000E+000	8	...........	1367.31
	56	5.7	-3.13092E-001	-9.71615E-007	0.00000E+000	-3.13121E-001	0.00000E+000	8	...........	1367.31
	57	5.8	-3.23148E-001	-9.73221E-007	0.00000E+000	-3.23168E-001	0.00000E+000	8	...........	1367.31
	58	5.9	-3.33142E-001	-9.67391E-007	0.00000E+000	-3.33166E-001	0.00000E+000	8	...........	1367.31
	59	6	-3.43157E-001	-9.64360E-007	0.00000E+000	-3.43163E-001	0.00000E+000	8	...........	1367.31
	60	6.1	-3.53154E-001	-9.61868E-007	0.00000E+000	-3.53161E-001	0.00000E+000	8	...........	1367.31
	61	6.2	-3.63158E-001	-9.58921E-007	0.00000E+000	-3.63158E-001	0.00000E+000	8	...........	1367.31
	62	6.3	-3.73155E-001	-9.56653E-007	0.00000E+000	-3.73156E-001	0.00000E+000	8	...........	1367.31
	63	6.4	-3.83128E-001	-9.53782E-007	0.00000E+000	-3.83153E-001	0.00000E+000	8	...........	1367.31
	64	6.5	-3.93125E-001	-9.49613E-007	0.00000E+000	-3.93150E-001	0.00000E+000	8	...........	1367.31
	65	6.6	-4.03125E-001	-9.45755E-007	0.00000E+000	-4.03148E-001	0.00000E+000	8	...........	1367.31
	66	6.7	-4.13137E-001	-9.41589E-007	0.00000E+000	-4.13145E-001	0.00000E+000	8	...........	1367.31
	67	6.8	-4.23154E-001	-9.37111E-007	0.00000E+000	-4.23143E-001	0.00000E+000	8	...........	1367.28
	68	6.9	-4.33129E-001	-9.30846E-007	0.00000E+000	-4.33140E-001	0.00000E+000	8	...........	1367.22
	69	7	-4.43133E-001	-9.24463E-007	0.00000E+000	-4.43138E-001	0.00000E+000	8	...........	1367.22
	70	7.1	-4.53133E-001	-9.17651E-007	0.00000E+000	-4.53135E-001	0.00000E+000	8	...........	1367.22
	71	7.2	-4.63156E-001	-9.09166E-007	0.00000E+000	-4.63133E-001	0.00000E+000	8	...........	1367.22
	72	7.3	-4.73131E-001	-8.99961E-007	0.00000E+000	-4.73130E-001	0.00000E+000	8	...........	1367.22
	73	7.4	-4.83123E-001	-8.90491E-007	0.00000E+000	-4.83127E-001	0.00000E+000	8	...........	1367.22
	74	7.5	-4.93118E-001	-8.80937E-007	0.00000E+000	-4.93125E-001	0.00000E+000	8	...........	1367.22
	75	7.6	-5.03122E-001	-8.70739E-007	0.00000E+000	-5.03122E-001	0.00000E+000	8	...........	1367.22
	76	7.7	-5.13173E-001	-8.61872E-007	0.00000E+000	-5.13170E-001	0.00000E+000	8	...........	1367.22
	77	7.8	-5.23135E-001	-8.50221E-007	0.00000E+000	-5.23167E-001	0.00000E+000	8	...........	1367.25
	78	7.9	-5.33147E-001	-8.41523E-007	0.00000E+000	-5.33165E-001	0.00000E+000	8	...........	1367.31
	79	8	-5.43144E-001	-8.33790E-007	0.00000E+000	-5.43162E-001	0.00000E+000	8	...........	1367.31
	80	8.1	-5.53163E-001	-8.25761E-007	0.00000E+000	-5.53159E-001	0.00000E+000	8	...........	1367.31
	81	8.2	-5.63153E-001	-8.19394E-007	0.00000E+000	-5.63157E-001	0.00000E+000	8	...........	1367.31
	82	8.3	-5.73134E-001	-8.13494E-007	0.00000E+000	-5.73154E-001	0.00000E+000	8	...........	1367.31
	83	8.4	-5.83144E-001	-8.09537E-007	0.00000E+000	-5.83152E-001	0.00000E+000	8	...........	1367.31
	84	8.5	-5.93138E-001	-8.06179E-007	0.00000E+000	-5.93149E-001	0.00000E+000	8	...........	1367.31
	85	8.6	-6.03152E-001	-8.05649E-007	0.00000E+000	-6.03147E-001	0.00000E+000	8	...........	1367.31
	86	8.7	-5.93183E-001	-3.10411E-007	0.00000E+000	-5.93149E-001	0.00000E+000	8	...........	1367.31
	87	8.8	-5.83185E-001	-2.44832E-007	0.00000E+000	-5.83152E-001	0.00000E+000	8	...........	1367.31
	88	8.9	-5.73195E-001	-1.98862E-007	0.00000E+000	-5.73154E-001	0.00000E+000	8	...........	1367.31
	89	9	-5.63188E-001	-1.61069E-007	0.00000E+000	-5.63157E-001	0.00000E+000	8	...........	1367.31
	90	9.1	-5.53194E-001	-1.27879E-007	0.00000E+000	-5.53159E-001	0.00000E+000	8	...........	1367.31
	91	9.2	-5.43197E-001	-9.88806E-008	0.00000E+000	-5.43162E-001	0.00000E+000	8	...........	1367.31
	92	9.3	-5.33205E-001	-7.16554E-008	0.00000E+000	-5.33165E-001	0.00000E+000	8	...........	1367.31
	93	9.4	-5.23191E-001	-4.57064E-008	0.00000E+000	-5.23167E-001	0.00000E+000	8	...........	1367.31
	94	9.5	-5.13230E-001	-2.19783E-008	0.00000E+000	-5.13170E-001	0.00000E+000	8	...........	1367.31
	95	9.6	-5.03168E-001	5.00429E-009	0.00000E+000	-5.03122E-001	0.00000E+000	8	...........	1367.31
	96	9.7	-4.93171E-001	2.65489E-008	0.00000E+000	-4.93125E-001	0.00000E+000	8	...........	1367.31
	97	9.8	-4.83173E-001	4.95090E-008	0.00000E+000	-4.83127E-001	0.00000E+000	8	...........	1367.31
	98	9.9	-4.73167E-001	7.33668E-008	0.00000E+000	-4.73130E-001	0.00000E+000	8	...........	1367.31
	99	10	-4.63196E-001	9.57675E-008	0.00000E+000	-4.63133E-001	0.00000E+000	8	...........	1367.31
	100	10.1	-4.53177E-001	1.18159E-007	0.00000E+000	-4.53135E-001	0.00000E+000	8	...........	1367.31
	101	10.2	-4.43175E-001	1.40872E-007	0.00000E+000	-4.43138E-001	0.00000E+000	8	...........	1367.31
	102	10.3	-4.33170E-001	1.63882E-007	0.00000E+000	-4.33140E-001	0.00000E+000	8	...........	1367.31
	103	10.4	-4.23202E-001	1.86506E-007	0.00000E+000	-4.23143E-001	0.00000E+000	8	...........	1367.31
	104	10.5	-4.13179E-001	2.08955E-007	0.00000E+000	-4.13145E-001	0.00000E+000	8	...........	1367.31
	105	10.6	-4.03171E-001	2.31962E-007	0.00000E+000	-4.03148E-001	0.00000E+000	8	...........	1367.31
	106	10.7	-3.93176E-001	2.54247E-007	0.00000E+000	-3.93150E-001	0.00000E+000	8	...........	1367.31
	107	10.8	-3.83185E-001	2.74695E-007	0.00000E+000	-3.83153E-001	0.00000E+000	8	...........	1367.31
	108	10.9	-3.73188E-001	2.96589E-007	0.00000E+000	-3.73156E-001	0.00000E+000	8	...........	1367.31
	109	11	-3.63197E-001	3.17676E-007	0.00000E+000	-3.63158E-001	0.00000E+000	8	...........	1367.31
	110	11.1	-3.53191E-001	3.39287E-007	0.00000E+000	-3.53161E-001	0.00000E+000	8	...........	1367.31
	111	11.2	-3.43199E-001	3.59244E-007	0.00000E+000	-3.43163E-001	0.00000E+000	8	...........	1367.31
	112	11.3	-3.33189E-001	3.78998E-007	0.00000E+000	-3.33166E-001	0.00000E+000	8	...........	1367.31
	113	11.4	-3.23197E-001	3.98267E-007	0.00000E+000	-3.23168E-001	0.00000E+000	8	...........	1367.31
	114	11.5	-3.13153E-001	4.19710E-007	0.00000E+000	-3.13121E-001	0.00000E+000	8	...........	1367.31
	115	11.6	-3.03159E-001	4.34811E-007	0.00000E+000	-3.03123E-001	0.00000E+000	8	...........	1367.31
	116	11.7	-2.93157E-001	4.53131E-007	0.00000E+000	-2.93126E-001	0.00000E+000	8	...........	1367.31
	117	11.8	-2.83174E-001	4.69548E-007	0.00000E+000	-2.83129E-001	0.00000E+000	8	...........	1367.28
	118	11.9	-2.73161E-001	4.86247E-007	0.00000E+000	-2.73131E-001	0.00000E+000	8	...........	1367.22
	119	12	-2.63170E-001	5.02027E-007	0.00000E+000	-2.63134E-001	0.00000E+000	8	...........	1367.22
	120	12.1	-2.53156E-001	5.16551E-007	0.00000E+000	-2.53136E-001	0.00000E+000	8	...........	1367.22
	121	12.2	-2.43162E-001	5.31080E-007	0.00000E+000	-2.43139E-001	0.00000E+000	8	...........	1367.22
	122	12.3	-2.33174E-001	5.45685E-007	0.00000E+000	-2.33141E-001	0.00000E+000	8	...........	1367.22
	123	12.4	-2.23172E-001	5.58411E-007	0.00000E+000	-2.23144E-001	0.00000E+000	8	...........	1367.22
	124	12.5	-2.13173E-001	5.69999E-007	0.00000E+000	-2.13146E-001	0.00000E+000	8	...........	1367.22
	125	12.6	-2.03173E-001	5.81848E-007	0.00000E+000	-2.03149E-001	0.00000E+000	8	...........	1367.22
	126	12.7	-1.93204E-001	5.92729E-007	0.00000E+000	-1.93152E-001	0.00000E+000	8	...........	1367.22
	127	12.8	-1.83205E-001	6.03209E-007	0.00000E+000	-1.83154E-001	0.00000E+000	8	...........	1367.25
	128	12.9	-1.73185E-001	6.12244E-007	0.00000E+000	-1.73157E-001	0.00000E+000	8	...........	1367.31
	129	13	-1.63193E-001	6.19706E-007	0.00000E+000	-1.63159E-001	0.00000E+000	8	...........	1367.31
	130	13.1	-1.53183E-001	6.27185E-007	0.00000E+000	-1.53162E-001	0.00000E+000	8	...........	1367.31
	131	13.2	-1.43210E-001	6.32505E-007	0.00000E+000	-1.43164E-001	0.00000E+000	8	...........	1367.31
	132	13.3	-1.33204E-001	6.36042E-007	0.00000E+000	-1.33167E-001	0.00000E+000	8	...........	1367.31
	133	13.4	-1.23200E-001	6.38284E-007	0.00000E+000	-1.23169E-001	0.00000E+000	8	...........	1367.31
	134	13.5	-1.13147E-001	6.41849E-007	0.00000E+000	-1.13122E-001	0.00000E+000	8	...........	1367.31
	135	13.6	-1.03171E-001	6.38957E-007	0.00000E+000	-1.03125E-001	0.00000E+000	8	...........	1367.31
	136	13.7	-9.31472E-002	6.39496E-007	0.00000E+000	-9.31272E-002	0.00000E+000	8	...........	1367.31
	137	13.8	-8.31438E-002	6.39742E-007	0.00000E+000	-8.31297E-002	0.00000E+000	8	...........	1367.28
	138	13.9	-7.31593E-002	6.39815E-007	0.00000E+000	-7.31323E-002	0.00000E+000	8	...........	1367.22
	139	14	-6.31575E-002	6.41273E-007	0.00000E+000	-6.31349E-002	0.00000E+000	8	...........	1367.22
	140	14.1	-5.31792E-002	6.43564E-007	0.00000E+000	-5.31374E-002	0.00000E+000	8	...........	1367.22
	141	14.2	-4.31708E-002	6.48790E-007	0.00000E+000	-4.31400E-002	0.00000E+000	8	...........	1367.22
	142	14.3	-3.31598E-002	6.54674E-007	0.00000E+000	-3.31425E-002	0.00000E+000	8	...........	1367.22
	143	14.4	-2.31611E-002	6.61736E-007	0.00000E+000	-2.31451E-002	0.00000E+000	8	...........	1367.22
	144	14.5	-1.31687E-002	6.68389E-007	0.00000E+000	-1.31477E-002	0.00000E+000	8	...........	1367.22
	145	14.6	-3.18145E-003	6.71296E-007	0.00000E+000	-3.15022E-003	0.00000E+000	8	...........	1367.22
	146	14.7	6.83081E-003	6.70763E-007	0.00000E+000	6.84722E-003	0.00000E+000	8	...........	1367.22
	147	14.8	1.68320E-002	6.70212E-007	0.00000E+000	1.68447E-002	0.00000E+000	8	...........	1367.25
	148	14.9	2.68605E-002	6.68873E-007	0.00000E+000	2.68421E-002	0.00000E+000	8	...........	1367.31
	149	15	3.68325E-002	6.68814E-007	0.00000E+000	3.68395E-002	0.00000E+000	8	...........	1367.31
	150	15.1	4.68313E-002	6.70455E-007	0.00000E+000	4.68370E-002	0.00000E+000	8	...........	1367.31
	151	15.2	5.68317E-002	6.72396E-007	0.00000E+000	5.68344E-002	0.00000E+000	8	...........	1367.31
	152	15.3	6.68438E-002	6.75719E-007	0.00000E+000	6.68319E-002	0.00000E+000	8	...........	1367.31
	153	15.4	7.68801E-002	6.81404E-007	0.00000E+000	7.68793E-002	0.00000E+000	8	...........	1367.31
	154	15.5	8.68817E-002	6.83708E-007	0.00000E+000	8.68767E-002	0.00000E+000	8	...........	1367.31
	155	15.6	9.68761E-002	6.87392E-007	0.00000E+000	9.68742E-002	0.00000E+000	8	...........	1367.31
	156	15.7	1.06866E-001	6.91390E-007	0.00000E+000	1.06872E-001	0.00000E+000	8	...........	1367.31
	157	15.8	1.16877E-001	6.95311E-007	0.00000E+000	1.16869E-001	0.00000E+000	8	...........	1367.31
	158	15.9	1.26858E-001	7.00292E-007	0.00000E+000	1.26866E-001	0.00000E+000	8	...........	1367.31
	159	16	1.36865E-001	7.08534E-007	0.00000E+000	1.36864E-001	0.00000E+000	8	...........	1367.31
	160	16.1	1.46862E-001	7.19857E-007	0.00000E+000	1.46861E-001	0.00000E+000	8	...........	1367.31
	161	16.2	1.56865E-001	7.32696E-007	0.00000E+000	1.56859E-001	0.00000E+000	8	...........	1367.31
	162	16.3	1.66871E-001	7.50254E-007	0.00000E+000	1.66856E-001	0.00000E+000	8	...........	1367.31
	163	16.4	1.76859E-001	7.71920E-007	0.00000E+000	1.76854E-001	0.00000E+000	8	...........	1367.31
	164	16.5	1.86868E-001	7.98933E-007	0.00000E+000	1.86851E-001	0.00000E+000	8	...........	1367.31
	165	16.6	1.96866E-001	8.30650E-007	0.00000E+000	1.96849E-001	0.00000E+000	8	...........	1367.31
	166	16.7	2.06864E-001	8.69382E-007	0.00000E+000	2.06846E-001	0.00000E+000	8	...........	1367.31
	167	16.8	2.16833E-001	9.13185E-007	0.00000E+000	2.16843E-001	0.00000E+000	8	...........	1367.31
	168	16.9	2.26844E-001	9.60118E-007	0.00000E+000	2.26841E-001	0.00000E+000	8	...........	1367.31
	169	17	2.36854E-001	9.99997E-007	0.00000E+000	2.36838E-001	0.00000E+000	8	...........	1367.31
	170	17.1	2.46856E-001	1.02728E-006	0.00000E+000	2.46836E-001	0.00000E+000	8	...........	1367.31
	171	17.2	2.56848E-001	1.04347E-006	0.00000E+000	2.56833E-001	0.00000E+000	8	...........	1367.31
	172	17.3	2.66831E-001	1.05318E-006	0.00000E+000	2.66831E-001	0.00000E+000	8	...........	1367.31
	173	17.4	2.76893E-001	1.06137E-006	0.00000E+000	2.76878E-001	0.00000E+000	8	...........	1367.31
	174	17.5	2.86900E-001	1.05873E-006	0.00000E+000	2.86876E-001	0.00000E+000	8	...........	1367.31
	175	17.6	2.96901E-001	1.05862E-006	0.00000E+000	2.96873E-001	0.00000E+000	8	...........	1367.31
	176	17.7	3.06889E-001	1.05764E-006	0.00000E+000	3.06870E-001	0.00000E+000	8	...........	1367.31
	177	17.8	3.16882E-001	1.05828E-006	0.00000E+000	3.16868E-001	0.00000E+000	8	...........	1367.31
	178	17.9	3.26889E-001	1.05679E-006	0.00000E+000	3.26865E-001	0.00000E+000	8	...........	1367.31
	179	18	3.36893E-001	1.05333E-006	0.00000E+000	3.36863E-001	0.00000E+000	8	...........	1367.31
	180	18.1	3.46896E-001	1.04964E-006	0.00000E+000	3.46860E-001	0.00000E+000	8	...........	1367.31
	181	18.2	3.56869E-001	1.04525E-006	0.00000E+000	3.56858E-001	0.00000E+000	8	...........	1367.31
	182	18.3	3.66887E-001	1.04311E-006	0.00000E+000	3.66855E-001	0.00000E+000	8	...........	1367.31
	183	18.4	3.76870E-001	1.04207E-006	0.00000E+000	3.76853E-001	0.00000E+000	8	...........	1367.31
	184	18.5	3.86876E-001	1.04201E-006	0.00000E+000	3.86850E-001	0.00000E+000	8	...........	1367.31
	185	18.6	3.96882E-001	1.03885E-006	0.00000E+000	3.96847E-001	0.00000E+000	8	...........	1367.31
	186	18.7	4.06866E-001	1.03092E-006	0.00000E+000	4.06845E-001	0.00000E+000	8	...........	1367.31
	187	18.8	4.16883E-001	1.01993E-006	0.00000E+000	4.16842E-001	0.00000E+000	8	...........	1367.31
	188	18.9	4.26889E-001	1.00728E-006	0.00000E+000	4.26840E-001	0.00000E+000	8	...........	1367.31
	189	19	4.36888E-001	9.93442E-007	0.00000E+000	4.36837E-001	0.00000E+000	8	...........	1367.31
	190	19.1	4.46855E-001	9.80726E-007	0.00000E+000	4.46835E-001	0.00000E+000	8	...........	1367.31
	191	19.2	4.56853E-001	9.67992E-007	0.00000E+000	4.56832E-001	0.00000E+000	8	...........	1367.31
	192	19.3	4.66867E-001	9.56508E-007	0.00000E+000	4.66829E-001	0.00000E+000	8	...........	1367.31
	193	19.4	4.76918E-001	9.48371E-007	0.00000E+000	4.76877E-001	0.00000E+000	8	...........	1367.31
	194	19.5	4.86924E-001	9.34299E-007	0.00000E+000	4.86874E-001	0.00000E+000	8	...........	1367.31
	195	19.6	4.96909E-001	9.24455E-007	0.00000E+000	4.96872E-001	0.00000E+000	8	...........	1367.31
	196	19.7	5.06917E-001	9.14805E-007	0.00000E+000	5.06869E-001	0.00000E+000	8	...........	1367.31
	197	19.8	5.16914E-001	9.06353E-007	0.00000E+000	5.16867E-001	0.00000E+000	8	...........	1367.31
	198	19.9	5.26906E-001	9.00076E-007	0.00000E+000	5.26864E-001	0.00000E+000	8	...........	1367.31
	199	20	5.36890E-001	8.93488E-007	0.00000E+000	5.36862E-001	0.00000E+000	8	...........	1367.31
	200	20.1	5.46916E-001	8.88466E-007	0.00000E+000	5.46859E-001	0.00000E+000	8	...........	1367.31
	201	20.2	5.56922E-001	8.83033E-007	0.00000E+000	5.56856E-001	0.00000E+000	8	...........	1367.31
	202	20.3	5.66928E-001	8.78118E-007	0.00000E+000	5.66854E-001	0.00000E+000	8	...........	1367.31
	203	20.4	5.76925E-001	8.72962E-007	0.00000E+000	5.76851E-001	0.00000E+000	8	...........	1367.31
	204	20.5	5.86896E-001	8.67975E-007	0.00000E+000	5.86849E-001	0.00000E+000	8	...........	1367.31
	205	20.6	5.96892E-001	8.64378E-007	0.00000E+000	5.96846E-001	0.00000E+000	8	...........	1367.31
	206	20.7	6.06890E-001	8.60485E-007	0.00000E+000	6.06844E-001	0.00000E+000	8	...........	1367.31
	207	20.8	6.16895E-001	8.57175E-007	0.00000E+000	6.16841E-001	0.00000E+000	8	...........	1367.31
	208	20.9	6.26886E-001	8.55616E-007	0.00000E+000	6.26839E-001	0.00000E+000	8	...........	1367.31
	209	21	6.36857E-001	8.53024E-007	0.00000E+000	6.36836E-001	0.00000E+000	8	...........	1367.31
	210	21.1	6.46892E-001	8.49203E-007	0.00000E+000	6.46833E-001	0.00000E+000	8	...........	1367.31
	211	21.2	6.56883E-001	8.45805E-007	0.00000E+000	6.56831E-001	0.00000E+000	8	...........	1367.31
	212	21.3	6.66951E-001	8.43089E-007	0.00000E+000	6.66878E-001	0.00000E+000	8	...........	1367.31
	213	21.4	6.76934E-001	8.37554E-007	0.00000E+000	6.76876E-001	0.00000E+000	8	...........	1367.31
	214	21.5	6.86926E-001	8.35667E-007	0.00000E+000	6.86873E-001	0.00000E+000	8	...........	1367.31
	215	21.6	6.96936E-001	8.35643E-007	0.00000E+000	6.96871E-001	0.00000E+000	8	...........	1367.31
	216	21.7	7.06935E-001	8.39818E-007	0.00000E+000	7.06868E-001	0.00000E+000	8	...........	1367.31
	217	21.8	7.16915E-001	8.48491E-007	0.00000E+000	7.16865E-001	0.00000E+000	8	...........	1367.28
	218	21.9	7.26916E-001	8.66911E-007	0.00000E+000	7.26863E-001	0.00000E+000	8	...........	1367.22
	219	22	7.36916E-001	8.94572E-007	0.00000E+000	7.36860E-001	0.00000E+000	8	...........	1367.22
	220	22.1	7.46925E-001	9.36546E-007	0.00000E+000	7.46858E-001	0.00000E+000	8	...........	1367.22
	221	22.2	7.56916E-001	1.00118E-006	0.00000E+000	7.56855E-001	0.00000E+000	8	...........	1367.22
	222	22.3	7.66901E-001	1.09535E-006	0.00000E+000	7.66853E-001	0.00000E+000	8	...........	1367.22
	223	22.4	7.76902E-001	1.23082E-006	0.00000E+000	7.76850E-001	0.00000E+000	8	...........	1367.22
	224	22.5	7.86922E-001	1.41640E-006	0.00000E+000	7.86848E-001	0.00000E+000	8	...........	1367.22
	225	22.6	7.96902E-001	1.67432E-006	0.00000E+000	7.96845E-001	0.00000E+000	8	...........	1367.22
CURVE2	TABLE
	Pt	T	Vf	Im	Vu	Sig	Ach	IERange	Over	Temp
	#	s	V vs. Ref.	A	V	V	V	#	bits	deg C
	226	22.7	7.90098E-001	5.48896E-007	0.00000E+000	7.89997E-001	0.00000E+000	8	...........	1367.22
	227	22.8	7.80100E-001	4.43744E-008	0.00000E+000	7.79999E-001	0.00000E+000	8	...........	1367.26
	228	22.9	7.70126E-001	-1.62210E-007	0.00000E+000	7.70002E-001	0.00000E+000	8	...........	1367.31
	229	23	7.60126E-001	-2.79983E-007	0.00000E+000	7.60004E-001	0.00000E+000	8	...........	1367.31
	230	23.1	7.50115E-001	-3.53149E-007	0.00000E+000	7.50007E-001	0.00000E+000	8	...........	1367.31
	231	23.2	7.40108E-001	-4.04823E-007	0.00000E+000	7.40010E-001	0.00000E+000	8	...........	1367.31
	232	23.3	7.30138E-001	-4.42308E-007	0.00000E+000	7.30012E-001	0.00000E+000	8	...........	1367.31
	233	23.4	7.20115E-001	-4.72819E-007	0.00000E+000	7.20015E-001	0.00000E+000	8	...........	1367.31
	234	23.5	7.10131E-001	-4.97971E-007	0.00000E+000	7.10017E-001	0.00000E+000	8	...........	1367.31
	235	23.6	7.00127E-001	-5.23699E-007	0.00000E+000	7.00020E-001	0.00000E+000	8	...........	1367.31
	236	23.7	6.90117E-001	-5.45460E-007	0.00000E+000	6.90022E-001	0.00000E+000	8	...........	1367.31
	237	23.8	6.80145E-001	-5.67736E-007	0.00000E+000	6.80025E-001	0.00000E+000	8	...........	1367.28
	238	23.9	6.70087E-001	-5.91200E-007	0.00000E+000	6.69977E-001	0.00000E+000	8	...........	1367.22
	239	24	6.60089E-001	-6.08625E-007	0.00000E+000	6.59980E-001	0.00000E+000	8	...........	1367.22
	240	24.1	6.50097E-001	-6.26949E-007	0.00000E+000	6.49983E-001	0.00000E+000	8	...........	1367.22
	241	24.2	6.40095E-001	-6.44909E-007	0.00000E+000	6.39985E-001	0.00000E+000	8	...........	1367.22
	242	24.3	6.30096E-001	-6.58421E-007	0.00000E+000	6.29988E-001	0.00000E+000	8	...........	1367.22
	243	24.4	6.20086E-001	-6.70721E-007	0.00000E+000	6.19990E-001	0.00000E+000	8	...........	1367.22
	244	24.5	6.10090E-001	-6.81602E-007	0.00000E+000	6.09993E-001	0.00000E+000	8	...........	1367.22
	245	24.6	6.00068E-001	-6.91696E-007	0.00000E+000	5.99995E-001	0.00000E+000	8	...........	1367.22
	246	24.7	5.90101E-001	-7.02789E-007	0.00000E+000	5.89998E-001	0.00000E+000	8	...........	1367.22
	247	24.8	5.80098E-001	-7.13368E-007	0.00000E+000	5.80001E-001	0.00000E+000	8	...........	1367.26
	248	24.9	5.70099E-001	-7.24153E-007	0.00000E+000	5.70003E-001	0.00000E+000	8	...........	1367.31
	249	25	5.60091E-001	-7.35931E-007	0.00000E+000	5.60006E-001	0.00000E+000	8	...........	1367.31
	250	25.1	5.50095E-001	-7.47303E-007	0.00000E+000	5.50008E-001	0.00000E+000	8	...........	1367.31
	251	25.2	5.40092E-001	-7.59842E-007	0.00000E+000	5.40011E-001	0.00000E+000	8	...........	1367.31
	252	25.3	5.30097E-001	-7.72275E-007	0.00000E+000	5.30013E-001	0.00000E+000	8	...........	1367.31
	253	25.4	5.20097E-001	-7.85426E-007	0.00000E+000	5.20016E-001	0.00000E+000	8	...........	1367.31
	254	25.5	5.10091E-001	-7.98691E-007	0.00000E+000	5.10018E-001	0.00000E+000	8	...........	1367.31
	255	25.6	5.00126E-001	-8.12037E-007	0.00000E+000	5.00021E-001	0.00000E+000	8	...........	1367.31
	256	25.7	4.90119E-001	-8.27913E-007	0.00000E+000	4.90024E-001	0.00000E+000	8	...........	1367.31
	257	25.8	4.80059E-001	-8.45735E-007	0.00000E+000	4.79976E-001	0.00000E+000	8	...........	1367.31
	258	25.9	4.70052E-001	-8.58964E-007	0.00000E+000	4.69979E-001	0.00000E+000	8	...........	1367.31
	259	26	4.60059E-001	-8.73991E-007	0.00000E+000	4.59981E-001	0.00000E+000	8	...........	1367.31
	260	26.1	4.50066E-001	-8.89374E-007	0.00000E+000	4.49984E-001	0.00000E+000	8	...........	1367.31
	261	26.2	4.40072E-001	-9.05123E-007	0.00000E+000	4.39986E-001	0.00000E+000	8	...........	1367.31
	262	26.3	4.30076E-001	-9.19811E-007	0.00000E+000	4.29989E-001	0.00000E+000	8	...........	1367.31
	263	26.4	4.20071E-001	-9.34663E-007	0.00000E+000	4.19991E-001	0.00000E+000	8	...........	1367.31
	264	26.5	4.10081E-001	-9.50027E-007	0.00000E+000	4.09994E-001	0.00000E+000	8	...........	1367.31
	265	26.6	4.00075E-001	-9.62588E-007	0.00000E+000	3.99997E-001	0.00000E+000	8	...........	1367.31
	266	26.7	3.90069E-001	-9.74261E-007	0.00000E+000	3.89999E-001	0.00000E+000	8	...........	1367.31
	267	26.8	3.80064E-001	-9.85645E-007	0.00000E+000	3.80002E-001	0.00000E+000	8	...........	1367.28
	268	26.9	3.70057E-001	-9.92082E-007	0.00000E+000	3.70004E-001	0.00000E+000	8	...........	1367.22
	269	27	3.60074E-001	-9.93480E-007	0.00000E+000	3.60007E-001	0.00000E+000	8	...........	1367.22
	270	27.1	3.50074E-001	-9.88638E-007	0.00000E+000	3.50009E-001	0.00000E+000	8	...........	1367.22
	271	27.2	3.40078E-001	-9.83762E-007	0.00000E+000	3.40012E-001	0.00000E+000	8	...........	1367.22
	272	27.3	3.30073E-001	-9.80787E-007	0.00000E+000	3.30014E-001	0.00000E+000	8	...........	1367.22
	273	27.4	3.20087E-001	-9.80027E-007	0.00000E+000	3.20017E-001	0.00000E+000	8	...........	1367.22
	274	27.5	3.10096E-001	-9.78668E-007	0.00000E+000	3.10020E-001	0.00000E+000	8	...........	1367.22
	275	27.6	3.00091E-001	-9.76166E-007	0.00000E+000	3.00022E-001	0.00000E+000	8	...........	1367.22
	276	27.7	2.90088E-001	-9.74634E-007	0.00000E+000	2.90025E-001	0.00000E+000	8	...........	1367.22
	277	27.8	2.80037E-001	-9.74641E-007	0.00000E+000	2.79977E-001	0.00000E+000	8	...........	1367.22
	278	27.9	2.70045E-001	-9.65157E-007	0.00000E+000	2.69980E-001	0.00000E+000	8	...........	1367.22
	279	28	2.60044E-001	-9.59067E-007	0.00000E+000	2.59982E-001	0.00000E+000	8	...........	1367.22
	280	28.1	2.50045E-001	-9.51631E-007	0.00000E+000	2.49985E-001	0.00000E+000	8	...........	1367.22
	281	28.2	2.40044E-001	-9.46485E-007	0.00000E+000	2.39988E-001	0.00000E+000	8	...........	1367.22
	282	28.3	2.30059E-001	-9.45686E-007	0.00000E+000	2.29990E-001	0.00000E+000	8	...........	1367.22
	283	28.4	2.20041E-001	-9.43995E-007	0.00000E+000	2.19993E-001	0.00000E+000	8	...........	1367.22
	284	28.5	2.10041E-001	-9.31667E-007	0.00000E+000	2.09995E-001	0.00000E+000	8	...........	1367.22
	285	28.6	2.00041E-001	-9.06858E-007	0.00000E+000	1.99998E-001	0.00000E+000	8	...........	1367.22
	286	28.7	1.90054E-001	-8.77358E-007	0.00000E+000	1.90000E-001	0.00000E+000	8	...........	1367.22
	287	28.8	1.80068E-001	-8.50098E-007	0.00000E+000	1.80003E-001	0.00000E+000	8	...........	1367.26
	288	28.9	1.70066E-001	-8.24123E-007	0.00000E+000	1.70005E-001	0.00000E+000	8	...........	1367.31
	289	29	1.60060E-001	-8.00043E-007	0.00000E+000	1.60008E-001	0.00000E+000	8	...........	1367.31
	290	29.1	1.50054E-001	-7.78376E-007	0.00000E+000	1.50011E-001	0.00000E+000	8	...........	1367.31
	291	29.2	1.40054E-001	-7.59598E-007	0.00000E+000	1.40013E-001	0.00000E+000	8	...........	1367.31
	292	29.3	1.30083E-001	-7.45008E-007	0.00000E+000	1.30016E-001	0.00000E+000	8	...........	1367.31
	293	29.4	1.20062E-001	-7.33261E-007	0.00000E+000	1.20018E-001	0.00000E+000	8	...........	1367.31
	294	29.5	1.10073E-001	-7.23882E-007	0.00000E+000	1.10021E-001	0.00000E+000	8	...........	1367.31
	295	29.6	1.00055E-001	-7.16876E-007	0.00000E+000	1.00023E-001	0.00000E+000	8	...........	1367.31
	296	29.7	9.00270E-002	-7.13072E-007	0.00000E+000	8.99759E-002	0.00000E+000	8	...........	1367.31
	297	29.8	8.00366E-002	-7.06389E-007	0.00000E+000	7.99785E-002	0.00000E+000	8	...........	1367.28
	298	29.9	7.00429E-002	-7.02769E-007	0.00000E+000	6.99811E-002	0.00000E+000	8	...........	1367.22
	299	30	6.00217E-002	-7.00861E-007	0.00000E+000	5.99836E-002	0.00000E+000	8	...........	1367.22
	300	30.1	5.00234E-002	-6.99730E-007	0.00000E+000	4.99862E-002	0.00000E+000	8	...........	1367.22
	301	30.2	4.00227E-002	-6.99515E-007	0.00000E+000	3.99887E-002	0.00000E+000	8	...........	1367.22
	302	30.3	3.00259E-002	-7.00665E-007	0.00000E+000	2.99913E-002	0.00000E+000	8	...........	1367.22
	303	30.4	2.00314E-002	-7.02580E-007	0.00000E+000	1.99939E-002	0.00000E+000	8	...........	1367.22
	304	30.5	1.00078E-002	-7.06356E-007	0.00000E+000	9.99641E-003	0.00000E+000	8	...........	1367.22
	305	30.6	3.85175E-005	-7.11317E-007	0.00000E+000	-1.02818E-006	0.00000E+000	8	...........	1367.22
	306	30.7	-9.97082E-003	-7.16639E-007	0.00000E+000	-9.99847E-003	0.00000E+000	8	...........	1367.22
	307	30.8	-1.99825E-002	-7.24186E-007	0.00000E+000	-1.99959E-002	0.00000E+000	8	...........	1367.22
	308	30.9	-2.99771E-002	-7.30626E-007	0.00000E+000	-2.99934E-002	0.00000E+000	8	...........	1367.22
	309	31	-3.99672E-002	-7.34331E-007	0.00000E+000	-3.99908E-002	0.00000E+000	8	...........	1367.22
	310	31.1	-4.99495E-002	-7.36804E-007	0.00000E+000	-4.99882E-002	0.00000E+000	8	...........	1367.22
	311	31.2	-5.99626E-002	-7.38935E-007	0.00000E+000	-5.99857E-002	0.00000E+000	8	...........	1367.22
	312	31.3	-6.99468E-002	-7.42485E-007	0.00000E+000	-6.99831E-002	0.00000E+000	8	...........	1367.22
	313	31.4	-7.99717E-002	-7.48563E-007	0.00000E+000	-7.99806E-002	0.00000E+000	8	...........	1367.22
	314	31.5	-8.99679E-002	-7.57027E-007	0.00000E+000	-8.99780E-002	0.00000E+000	8	...........	1367.22
	315	31.6	-9.99635E-002	-7.67482E-007	0.00000E+000	-9.99754E-002	0.00000E+000	8	...........	1367.22
	316	31.7	-1.10001E-001	-7.81990E-007	0.00000E+000	-1.10023E-001	0.00000E+000	8	...........	1367.22
	317	31.8	-1.20003E-001	-7.94558E-007	0.00000E+000	-1.20020E-001	0.00000E+000	8	...........	1367.22
	318	31.9	-1.30010E-001	-8.10823E-007	0.00000E+000	-1.30018E-001	0.00000E+000	8	...........	1367.22
	319	32	-1.39989E-001	-8.27317E-007	0.00000E+000	-1.40015E-001	0.00000E+000	8	...........	1367.22
	320	32.1	-1.50008E-001	-8.44812E-007	0.00000E+000	-1.50013E-001	0.00000E+000	8	...........	1367.22
	321	32.2	-1.59985E-001	-8.61662E-007	0.00000E+000	-1.60010E-001	0.00000E+000	8	...........	1367.22
	322	32.3	-1.69984E-001	-8.77780E-007	0.00000E+000	-1.70007E-001	0.00000E+000	8	...........	1367.22
	323	32.4	-1.80001E-001	-8.91535E-007	0.00000E+000	-1.80005E-001	0.00000E+000	8	...........	1367.22
	324	32.5	-1.89976E-001	-9.03217E-007	0.00000E+000	-1.90002E-001	0.00000E+000	8	...........	1367.22
	325	32.6	-1.99971E-001	-9.12539E-007	0.00000E+000	-2.00000E-001	0.00000E+000	8	...........	1367.22
	326	32.7	-2.09977E-001	-9.20177E-007	0.00000E+000	-2.09997E-001	0.00000E+000	8	...........	1367.22
	327	32.8	-2.20002E-001	-9.25117E-007	0.00000E+000	-2.19995E-001	0.00000E+000	8	...........	1367.22
	328	32.9	-2.29988E-001	-9.29599E-007	0.00000E+000	-2.29992E-001	0.00000E+000	8	...........	1367.22
	329	33	-2.39977E-001	-9.30786E-007	0.00000E+000	-2.39990E-001	0.00000E+000	8	...........	1367.22
	330	33.1	-2.49975E-001	-9.31579E-007	0.00000E+000	-2.49987E-001	0.00000E+000	8	...........	1367.22
	331	33.2	-2.59973E-001	-9.31571E-007	0.00000E+000	-2.59984E-001	0.00000E+000	8	...........	1367.22
	332	33.3	-2.69967E-001	-9.30648E-007	0.00000E+000	-2.69982E-001	0.00000E+000	8	...........	1367.22
	333	33.4	-2.79958E-001	-9.28953E-007	0.00000E+000	-2.79979E-001	0.00000E+000	8	...........	1367.22
	334	33.5	-2.89960E-001	-9.26307E-007	0.00000E+000	-2.89977E-001	0.00000E+000	8	...........	1367.22
	335	33.6	-3.00011E-001	-9.26807E-007	0.00000E+000	-3.00024E-001	0.00000E+000	8	...........	1367.22
	336	33.7	-3.10002E-001	-9.20365E-007	0.00000E+000	-3.10022E-001	0.00000E+000	8	...........	1367.22
	337	33.8	-3.19981E-001	-9.19258E-007	0.00000E+000	-3.20019E-001	0.00000E+000	8	...........	1367.26
	338	33.9	-3.29973E-001	-9.15465E-007	0.00000E+000	-3.30017E-001	0.00000E+000	8	...........	1367.31
	339	34	-3.40003E-001	-9.12693E-007	0.00000E+000	-3.40014E-001	0.00000E+000	8	...........	1367.31
[...]
	638	63.9	-5.30000E-001	-7.56164E-007	0.00000E+000	-5.30015E-001	0.00000E+000	8	...........	1367.31
	639	64	-5.40014E-001	-7.48345E-007	0.00000E+000	-5.40013E-001	0.00000E+000	8	...........	1367.31
	640	64.1	-5.50000E-001	-7.42388E-007	0.00000E+000	-5.50010E-001	0.00000E+000	8	...........	1367.31
	641	64.2	-5.60000E-001	-7.37324E-007	0.00000E+000	-5.60008E-001	0.00000E+000	8	...........	1367.31
	642	64.3	-5.70005E-001	-7.32580E-007	0.00000E+000	-5.70005E-001	0.00000E+000	8	...........	1367.31
	643	64.4	-5.80009E-001	-7.28814E-007	0.00000E+000	-5.80003E-001	0.00000E+000	8	...........	1367.31
	644	64.5	-5.90004E-001	-7.26636E-007	0.00000E+000	-5.90000E-001	0.00000E+000	8	...........	1367.31
	645	64.6	-5.99986E-001	-7.25338E-007	0.00000E+000	-5.99997E-001	0.00000E+000	8	...........	1367.31
	646	64.7	-5.90041E-001	-2.42086E-007	0.00000E+000	-5.90000E-001	0.00000E+000	8	...........	1367.31
	647	64.8	-5.80042E-001	-1.82590E-007	0.00000E+000	-5.80003E-001	0.00000E+000	8	...........	1367.31
	648	64.9	-5.70033E-001	-1.39849E-007	0.00000E+000	-5.70005E-001	0.00000E+000	8	...........	1367.31
	649	65	-5.60031E-001	-1.05470E-007	0.00000E+000	-5.60008E-001	0.00000E+000	8	...........	1367.31
	650	65.1	-5.50046E-001	-7.52594E-008	0.00000E+000	-5.50010E-001	0.00000E+000	8	...........	1367.31
	651	65.2	-5.40046E-001	-4.84694E-008	0.00000E+000	-5.40013E-001	0.00000E+000	8	...........	1367.31
	652	65.3	-5.30033E-001	-2.27247E-008	0.00000E+000	-5.30015E-001	0.00000E+000	8	...........	1367.31
	653	65.4	-5.20035E-001	5.72135E-010	0.00000E+000	-5.20018E-001	0.00000E+000	8	...........	1367.31
	654	65.5	-5.10060E-001	2.29394E-008	0.00000E+000	-5.10020E-001	0.00000E+000	8	...........	1367.31
	655	65.6	-5.00098E-001	4.57553E-008	0.00000E+000	-5.00023E-001	0.00000E+000	8	...........	1367.31
	656	65.7	-4.90045E-001	6.90839E-008	0.00000E+000	-4.89976E-001	0.00000E+000	8	...........	1367.31
	657	65.8	-4.80040E-001	8.94352E-008	0.00000E+000	-4.79978E-001	0.00000E+000	8	...........	1367.31
	658	65.9	-4.70035E-001	1.10432E-007	0.00000E+000	-4.69981E-001	0.00000E+000	8	...........	1367.31
	659	66	-4.60034E-001	1.31490E-007	0.00000E+000	-4.59983E-001	0.00000E+000	8	...........	1367.31
	660	66.1	-4.50034E-001	1.52643E-007	0.00000E+000	-4.49986E-001	0.00000E+000	8	...........	1367.31
	661	66.2	-4.40036E-001	1.73909E-007	0.00000E+000	-4.39988E-001	0.00000E+000	8	...........	1367.31
	662	66.3	-4.30036E-001	1.94365E-007	0.00000E+000	-4.29991E-001	0.00000E+000	8	...........	1367.31
	663	66.4	-4.20038E-001	2.15557E-007	0.00000E+000	-4.19994E-001	0.00000E+000	8	...........	1367.31
	664	66.5	-4.10036E-001	2.35559E-007	0.00000E+000	-4.09996E-001	0.00000E+000	8	...........	1367.31
	665	66.6	-4.00035E-001	2.57068E-007	0.00000E+000	-3.99999E-001	0.00000E+000	8	...........	1367.31
	666	66.7	-3.90046E-001	2.76809E-007	0.00000E+000	-3.90001E-001	0.00000E+000	8	...........	1367.31
	667	66.8	-3.80037E-001	2.96852E-007	0.00000E+000	-3.80004E-001	0.00000E+000	8	...........	1367.31
	668	66.9	-3.70023E-001	3.17376E-007	0.00000E+000	-3.70006E-001	0.00000E+000	8	...........	1367.31
	669	67	-3.60047E-001	3.37378E-007	0.00000E+000	-3.60009E-001	0.00000E+000	8	...........	1367.31
	670	67.1	-3.50040E-001	3.57211E-007	0.00000E+000	-3.50011E-001	0.00000E+000	8	...........	1367.31
	671	67.2	-3.40037E-001	3.76264E-007	0.00000E+000	-3.40014E-001	0.00000E+000	8	...........	1367.31
	672	67.3	-3.30019E-001	3.94746E-007	0.00000E+000	-3.30017E-001	0.00000E+000	8	...........	1367.31
	673	67.4	-3.20022E-001	4.13647E-007	0.00000E+000	-3.20019E-001	0.00000E+000	8	...........	1367.31
	674	67.5	-3.10050E-001	4.29969E-007	0.00000E+000	-3.10022E-001	0.00000E+000	8	...........	1367.31
	675	67.6	-3.00048E-001	4.47109E-007	0.00000E+000	-3.00024E-001	0.00000E+000	8	...........	1367.31
	676	67.7	-2.89998E-001	4.66481E-007	0.00000E+000	-2.89977E-001	0.00000E+000	8	...........	1367.31
	677	67.8	-2.80008E-001	4.80645E-007	0.00000E+000	-2.79979E-001	0.00000E+000	8	...........	1367.31
	678	67.9	-2.70021E-001	4.95458E-007	0.00000E+000	-2.69982E-001	0.00000E+000	8	...........	1367.31
	679	68	-2.60028E-001	5.10415E-007	0.00000E+000	-2.59984E-001	0.00000E+000	8	...........	1367.31
	680	68.1	-2.50022E-001	5.23304E-007	0.00000E+000	-2.49987E-001	0.00000E+000	8	...........	1367.31
	681	68.2	-2.40012E-001	5.36979E-007	0.00000E+000	-2.39990E-001	0.00000E+000	8	...........	1367.31
	682	68.3	-2.30011E-001	5.49749E-007	0.00000E+000	-2.29992E-001	0.00000E+000	8	...........	1367.31
	683	68.4	-2.20034E-001	5.61972E-007	0.00000E+000	-2.19995E-001	0.00000E+000	8	...........	1367.31
	684	68.5	-2.10032E-001	5.72708E-007	0.00000E+000	-2.09997E-001	0.00000E+000	8	...........	1367.31
	685	68.6	-2.00039E-001	5.84109E-007	0.00000E+000	-2.00000E-001	0.00000E+000	8	...........	1367.31
	686	68.7	-1.90026E-001	5.93383E-007	0.00000E+000	-1.90002E-001	0.00000E+000	8	...........	1367.31
	687	68.8	-1.80047E-001	6.02206E-007	0.00000E+000	-1.80005E-001	0.00000E+000	8	...........	1367.31
	688	68.9	-1.70024E-001	6.11152E-007	0.00000E+000	-1.70007E-001	0.00000E+000	8	...........	1367.31
	689	69	-1.60030E-001	6.18326E-007	0.00000E+000	-1.60010E-001	0.00000E+000	8	...........	1367.31
	690	69.1	-1.50050E-001	6.24223E-007	0.00000E+000	-1.50013E-001	0.00000E+000	8	...........	1367.31
	691	69.2	-1.40044E-001	6.29261E-007	0.00000E+000	-1.40015E-001	0.00000E+000	8	...........	1367.31
	692	69.3	-1.30072E-001	6.32195E-007	0.00000E+000	-1.30018E-001	0.00000E+000	8	...........	1367.31
	693	69.4	-1.20053E-001	6.33582E-007	0.00000E+000	-1.20020E-001	0.00000E+000	8	...........	1367.31
	694	69.5	-1.10050E-001	6.34261E-007	0.00000E+000	-1.10023E-001	0.00000E+000	8	...........	1367.31
	695	69.6	-1.00007E-001	6.36171E-007	0.00000E+000	-9.99754E-002	0.00000E+000	8	...........	1367.31
	696	69.7	-9.00173E-002	6.33895E-007	0.00000E+000	-8.99780E-002	0.00000E+000	8	...........	1367.31
	697	69.8	-8.00100E-002	6.33544E-007	0.00000E+000	-7.99806E-002	0.00000E+000	8	...........	1367.31
	698	69.9	-7.00032E-002	6.34588E-007	0.00000E+000	-6.99831E-002	0.00000E+000	8	...........	1367.31
	699	70	-6.00116E-002	6.35714E-007	0.00000E+000	-5.99857E-002	0.00000E+000	8	...........	1367.31
	700	70.1	-4.99936E-002	6.38490E-007	0.00000E+000	-4.99882E-002	0.00000E+000	8	...........	1367.31
	701	70.2	-4.00295E-002	6.42100E-007	0.00000E+000	-3.99908E-002	0.00000E+000	8	...........	1367.31
	702	70.3	-3.00338E-002	6.48390E-007	0.00000E+000	-2.99934E-002	0.00000E+000	8	...........	1367.31
	703	70.4	-2.00304E-002	6.55653E-007	0.00000E+000	-1.99959E-002	0.00000E+000	8	...........	1367.31
	704	70.5	-1.00225E-002	6.61780E-007	0.00000E+000	-9.99847E-003	0.00000E+000	8	...........	1367.31
	705	70.6	4.76366E-006	6.65986E-007	0.00000E+000	-1.02818E-006	0.00000E+000	8	...........	1367.31
	706	70.7	9.98007E-003	6.67068E-007	0.00000E+000	9.99641E-003	0.00000E+000	8	...........	1367.31
	707	70.8	1.99873E-002	6.65902E-007	0.00000E+000	1.99939E-002	0.00000E+000	8	...........	1367.31
	708	70.9	3.00012E-002	6.66082E-007	0.00000E+000	2.99913E-002	0.00000E+000	8	...........	1367.31
	709	71	4.00003E-002	6.66434E-007	0.00000E+000	3.99887E-002	0.00000E+000	8	...........	1367.31
	710	71.1	4.99938E-002	6.68144E-007	0.00000E+000	4.99862E-002	0.00000E+000	8	...........	1367.31
	711	71.2	5.99815E-002	6.70815E-007	0.00000E+000	5.99836E-002	0.00000E+000	8	...........	1367.31
	712	71.3	6.99988E-002	6.73352E-007	0.00000E+000	6.99811E-002	0.00000E+000	8	...........	1367.31
	713	71.4	7.99877E-002	6.77439E-007	0.00000E+000	7.99785E-002	0.00000E+000	8	...........	1367.31
	714	71.5	8.99835E-002	6.81988E-007	0.00000E+000	8.99759E-002	0.00000E+000	8	...........	1367.31
	715	71.6	1.00017E-001	6.88918E-007	0.00000E+000	1.00023E-001	0.00000E+000	8	...........	1367.31
	716	71.7	1.10032E-001	6.90662E-007	0.00000E+000	1.10021E-001	0.00000E+000	8	...........	1367.31
	717	71.8	1.20036E-001	6.94352E-007	0.00000E+000	1.20018E-001	0.00000E+000	8	...........	1367.31
	718	71.9	1.30025E-001	6.99555E-007	0.00000E+000	1.30016E-001	0.00000E+000	8	...........	1367.31
	719	72	1.40004E-001	7.07732E-007	0.00000E+000	1.40013E-001	0.00000E+000	8	...........	1367.31
	720	72.1	1.50010E-001	7.18640E-007	0.00000E+000	1.50011E-001	0.00000E+000	8	...........	1367.31
	721	72.2	1.60017E-001	7.32071E-007	0.00000E+000	1.60008E-001	0.00000E+000	8	...........	1367.31
	722	72.3	1.70001E-001	7.48225E-007	0.00000E+000	1.70005E-001	0.00000E+000	8	...........	1367.31
	723	72.4	1.80014E-001	7.69400E-007	0.00000E+000	1.80003E-001	0.00000E+000	8	...........	1367.31
	724	72.5	1.90007E-001	7.95721E-007	0.00000E+000	1.90000E-001	0.00000E+000	8	...........	1367.31
	725	72.6	2.00004E-001	8.28490E-007	0.00000E+000	1.99998E-001	0.00000E+000	8	...........	1367.31
	726	72.7	2.10011E-001	8.67974E-007	0.00000E+000	2.09995E-001	0.00000E+000	8	...........	1367.31
	727	72.8	2.20002E-001	9.14028E-007	0.00000E+000	2.19993E-001	0.00000E+000	8	...........	1367.31
	728	72.9	2.30020E-001	9.63632E-007	0.00000E+000	2.29990E-001	0.00000E+000	8	...........	1367.31
	729	73	2.40008E-001	1.01214E-006	0.00000E+000	2.39988E-001	0.00000E+000	8	...........	1367.31
	730	73.1	2.50004E-001	1.04416E-006	0.00000E+000	2.49985E-001	0.00000E+000	8	...........	1367.31
	731	73.2	2.59992E-001	1.06075E-006	0.00000E+000	2.59982E-001	0.00000E+000	8	...........	1367.31
	732	73.3	2.70003E-001	1.07173E-006	0.00000E+000	2.69980E-001	0.00000E+000	8	...........	1367.31
	733	73.4	2.79991E-001	1.07476E-006	0.00000E+000	2.79977E-001	0.00000E+000	8	...........	1367.31
	734	73.5	2.90046E-001	1.07591E-006	0.00000E+000	2.90025E-001	0.00000E+000	8	...........	1367.31
	735	73.6	3.00045E-001	1.07139E-006	0.00000E+000	3.00022E-001	0.00000E+000	8	...........	1367.31
	736	73.7	3.10047E-001	1.07058E-006	0.00000E+000	3.10020E-001	0.00000E+000	8	...........	1367.31
	737	73.8	3.20042E-001	1.07195E-006	0.00000E+000	3.20017E-001	0.00000E+000	8	...........	1367.31
	738	73.9	3.30041E-001	1.07152E-006	0.00000E+000	3.30014E-001	0.00000E+000	8	...........	1367.31
	739	74	3.40041E-001	1.06910E-006	0.00000E+000	3.40012E-001	0.00000E+000	8	...........	1367.31
	740	74.1	3.50037E-001	1.06572E-006	0.00000E+000	3.50009E-001	0.00000E+000	8	...........	1367.31
	741	74.2	3.60034E-001	1.06182E-006	0.00000E+000	3.60007E-001	0.00000E+000	8	...........	1367.31
	742	74.3	3.70011E-001	1.05987E-006	0.00000E+000	3.70004E-001	0.00000E+000	8	...........	1367.31
	743	74.4	3.80007E-001	1.05845E-006	0.00000E+000	3.80002E-001	0.00000E+000	8	...........	1367.31
	744	74.5	3.90014E-001	1.06085E-006	0.00000E+000	3.89999E-001	0.00000E+000	8	...........	1367.31
	745	74.6	4.00015E-001	1.06063E-006	0.00000E+000	3.99997E-001	0.00000E+000	8	...........	1367.31
	746	74.7	4.10036E-001	1.05057E-006	0.00000E+000	4.09994E-001	0.00000E+000	8	...........	1367.31
	747	74.8	4.20020E-001	1.03830E-006	0.00000E+000	4.19991E-001	0.00000E+000	8	...........	1367.31
	748	74.9	4.30008E-001	1.02397E-006	0.00000E+000	4.29989E-001	0.00000E+000	8	...........	1367.31
	749	75	4.40021E-001	1.00995E-006	0.00000E+000	4.39986E-001	0.00000E+000	8	...........	1367.31
	750	75.1	4.50026E-001	9.95776E-007	0.00000E+000	4.49984E-001	0.00000E+000	8	...........	1367.31
	751	75.2	4.60010E-001	9.82422E-007	0.00000E+000	4.59981E-001	0.00000E+000	8	...........	1367.31
	752	75.3	4.70015E-001	9.68252E-007	0.00000E+000	4.69979E-001	0.00000E+000	8	...........	1367.31
	753	75.4	4.80030E-001	9.54818E-007	0.00000E+000	4.79976E-001	0.00000E+000	8	...........	1367.31
	754	75.5	4.90087E-001	9.43954E-007	0.00000E+000	4.90024E-001	0.00000E+000	8	...........	1367.31
	755	75.6	5.00072E-001	9.28749E-007	0.00000E+000	5.00021E-001	0.00000E+000	8	...........	1367.31
	756	75.7	5.10045E-001	9.15327E-007	0.00000E+000	5.10018E-001	0.00000E+000	8	...........	1367.31
	757	75.8	5.20065E-001	9.05089E-007	0.00000E+000	5.20016E-001	0.00000E+000	8	...........	1367.31
	758	75.9	5.30054E-001	8.95596E-007	0.00000E+000	5.30013E-001	0.00000E+000	8	...........	1367.31
	759	76	5.40058E-001	8.85670E-007	0.00000E+000	5.40011E-001	0.00000E+000	8	...........	1367.31
	760	76.1	5.50064E-001	8.77318E-007	0.00000E+000	5.50008E-001	0.00000E+000	8	...........	1367.31
	761	76.2	5.60053E-001	8.68732E-007	0.00000E+000	5.60006E-001	0.00000E+000	8	...........	1367.31
	762	76.3	5.70059E-001	8.60874E-007	0.00000E+000	5.70003E-001	0.00000E+000	8	...........	1367.31
	763	76.4	5.80064E-001	8.53401E-007	0.00000E+000	5.80001E-001	0.00000E+000	8	...........	1367.31
	764	76.5	5.90078E-001	8.46341E-007	0.00000E+000	5.89998E-001	0.00000E+000	8	...........	1367.31
	765	76.6	6.00044E-001	8.41913E-007	0.00000E+000	5.99995E-001	0.00000E+000	8	...........	1367.31
	766	76.7	6.10053E-001	8.37177E-007	0.00000E+000	6.09993E-001	0.00000E+000	8	...........	1367.31
	767	76.8	6.20041E-001	8.32959E-007	0.00000E+000	6.19990E-001	0.00000E+000	8	...........	1367.31
	768	76.9	6.30048E-001	8.28691E-007	0.00000E+000	6.29988E-001	0.00000E+000	8	...........	1367.31
	769	77	6.40044E-001	8.24256E-007	0.00000E+000	6.39985E-001	0.00000E+000	8	...........	1367.31
	770	77.1	6.50032E-001	8.19446E-007	0.00000E+000	6.49983E-001	0.00000E+000	8	...........	1367.31
	771	77.2	6.60035E-001	8.12839E-007	0.00000E+000	6.59980E-001	0.00000E+000	8	...........	1367.31
	772	77.3	6.70023E-001	8.05949E-007	0.00000E+000	6.69977E-001	0.00000E+000	8	...........	1367.31
	773	77.4	6.80093E-001	8.02154E-007	0.00000E+000	6.80025E-001	0.00000E+000	8	...........	1367.31
	774	77.5	6.90078E-001	7.95982E-007	0.00000E+000	6.90022E-001	0.00000E+000	8	...........	1367.31
	775	77.6	7.00067E-001	7.94748E-007	0.00000E+000	7.00020E-001	0.00000E+000	8	...........	1367.31
	776	77.7	7.10097E-001	7.95996E-007	0.00000E+000	7.10017E-001	0.00000E+000	8	...........	1367.31
	777	77.8	7.20073E-001	8.03705E-007	0.00000E+000	7.20015E-001	0.00000E+000	8	...........	1367.31
	778	77.9	7.30088E-001	8.21548E-007	0.00000E+000	7.30012E-001	0.00000E+000	8	...........	1367.31
	779	78	7.40067E-001	8.49122E-007	0.00000E+000	7.40010E-001	0.00000E+000	8	...........	1367.31
	780	78.1	7.50071E-001	8.92507E-007	0.00000E+000	7.50007E-001	0.00000E+000	8	...........	1367.31
	781	78.2	7.60071E-001	9.58667E-007	0.00000E+000	7.60004E-001	0.00000E+000	8	...........	1367.31
	782	78.3	7.70063E-001	1.05818E-006	0.00000E+000	7.70002E-001	0.00000E+000	8	...........	1367.31
	783	78.4	7.80040E-001	1.20029E-006	0.00000E+000	7.79999E-001	0.00000E+000	8	...........	1367.31
	784	78.5	7.90067E-001	1.39946E-006	0.00000E+000	7.89997E-001	0.00000E+000	8	...........	1367.31
	785	78.6	8.00067E-001	1.68185E-006	0.00000E+000	7.99994E-001	0.00000E+000	8	...........	1367.31
CURVE4	TABLE
	Pt	T	Vf	Im	Vu	Sig	Ach	IERange	Over	Temp
	#	s	V vs. Ref.	A	V	V	V	#	bits	deg C
	786	78.7	7.90110E-001	2.98870E-007	0.00000E+000	7.89997E-001	0.00000E+000	8	...........	1367.31
	787	78.8	7.80095E-001	-4.68680E-008	0.00000E+000	7.79999E-001	0.00000E+000	8	...........	1367.31
	788	78.9	7.70120E-001	-2.28459E-007	0.00000E+000	7.70002E-001	0.00000E+000	8	...........	1367.31
	789	79	7.60119E-001	-3.30981E-007	0.00000E+000	7.60004E-001	0.00000E+000	8	...........	1367.31
	790	79.1	7.50121E-001	-3.95434E-007	0.00000E+000	7.50007E-001	0.00000E+000	8	...........	1367.31
	791	79.2	7.40117E-001	-4.40444E-007	0.00000E+000	7.40010E-001	0.00000E+000	8	...........	1367.31
	792	79.3	7.30129E-001	-4.73566E-007	0.00000E+000	7.30012E-001	0.00000E+000	8	...........	1367.31
	793	79.4	7.20102E-001	-5.00273E-007	0.00000E+000	7.20015E-001	0.00000E+000	8	...........	1367.31
	794	79.5	7.10130E-001	-5.22806E-007	0.00000E+000	7.10017E-001	0.00000E+000	8	...........	1367.31
	795	79.6	7.00109E-001	-5.46083E-007	0.00000E+000	7.00020E-001	0.00000E+000	8	...........	1367.31
	796	79.7	6.90113E-001	-5.67119E-007	0.00000E+000	6.90022E-001	0.00000E+000	8	...........	1367.31
	797	79.8	6.80150E-001	-5.87396E-007	0.00000E+000	6.80025E-001	0.00000E+000	8	...........	1367.31
	798	79.9	6.70090E-001	-6.09672E-007	0.00000E+000	6.69977E-001	0.00000E+000	8	...........	1367.31
	799	80	6.60079E-001	-6.25924E-007	0.00000E+000	6.59980E-001	0.00000E+000	8	...........	1367.31
	800	80.1	6.50070E-001	-6.43668E-007	0.00000E+000	6.49983E-001	0.00000E+000	8	...........	1367.31
	801	80.2	6.40093E-001	-6.60529E-007	0.00000E+000	6.39985E-001	0.00000E+000	8	...........	1367.31
	802	80.3	6.30093E-001	-6.73909E-007	0.00000E+000	6.29988E-001	0.00000E+000	8	...........	1367.31
	803	80.4	6.20080E-001	-6.85131E-007	0.00000E+000	6.19990E-001	0.00000E+000	8	...........	1367.31
	804	80.5	6.10090E-001	-6.95138E-007	0.00000E+000	6.09993E-001	0.00000E+000	8	...........	1367.31
	805	80.6	6.00088E-001	-7.05661E-007	0.00000E+000	5.99995E-001	0.00000E+000	8	...........	1367.31
	806	80.7	5.90105E-001	-7.15437E-007	0.00000E+000	5.89998E-001	0.00000E+000	8	...........	1367.31
	807	80.8	5.80100E-001	-7.25745E-007	0.00000E+000	5.80001E-001	0.00000E+000	8	...........	1367.27
	808	80.9	5.70104E-001	-7.36960E-007	0.00000E+000	5.70003E-001	0.00000E+000	8	...........	1367.22
	809	81	5.60099E-001	-7.47531E-007	0.00000E+000	5.60006E-001	0.00000E+000	8	...........	1367.22
	810	81.1	5.50116E-001	-7.59724E-007	0.00000E+000	5.50008E-001	0.00000E+000	8	...........	1367.22
	811	81.2	5.40111E-001	-7.71541E-007	0.00000E+000	5.40011E-001	0.00000E+000	8	...........	1367.22
	812	81.3	5.30107E-001	-7.83508E-007	0.00000E+000	5.30013E-001	0.00000E+000	8	...........	1367.22
	813	81.4	5.20104E-001	-7.97633E-007	0.00000E+000	5.20016E-001	0.00000E+000	8	...........	1367.22
	814	81.5	5.10091E-001	-8.11753E-007	0.00000E+000	5.10018E-001	0.00000E+000	8	...........	1367.22
	815	81.6	5.00121E-001	-8.24403E-007	0.00000E+000	5.00021E-001	0.00000E+000	8	...........	1367.22
	816	81.7	4.90121E-001	-8.41377E-007	0.00000E+000	4.90024E-001	0.00000E+000	8	...........	1367.22
	817	81.8	4.80069E-001	-8.60589E-007	0.00000E+000	4.79976E-001	0.00000E+000	8	...........	1367.22
	818	81.9	4.70058E-001	-8.72881E-007	0.00000E+000	4.69979E-001	0.00000E+000	8	...........	1367.22
	819	82	4.60062E-001	-8.89295E-007	0.00000E+000	4.59981E-001	0.00000E+000	8	...........	1367.22
	820	82.1	4.50065E-001	-9.05125E-007	0.00000E+000	4.49984E-001	0.00000E+000	8	...........	1367.22
	821	82.2	4.40067E-001	-9.22601E-007	0.00000E+000	4.39986E-001	0.00000E+000	8	...........	1367.22
	822	82.3	4.30072E-001	-9.38715E-007	0.00000E+000	4.29989E-001	0.00000E+000	8	...........	1367.22
	823	82.4	4.20067E-001	-9.54407E-007	0.00000E+000	4.19991E-001	0.00000E+000	8	...........	1367.22
	824	82.5	4.10077E-001	-9.69693E-007	0.00000E+000	4.09994E-001	0.00000E+000	8	...........	1367.22
	825	82.6	4.00066E-001	-9.81174E-007	0.00000E+000	3.99997E-001	0.00000E+000	8	...........	1367.22
	826	82.7	3.90070E-001	-9.93369E-007	0.00000E+000	3.89999E-001	0.00000E+000	8	...........	1367.22
	827	82.8	3.80060E-001	-1.00254E-006	0.00000E+000	3.80002E-001	0.00000E+000	8	...........	1367.18
	828	82.9	3.70071E-001	-1.00608E-006	0.00000E+000	3.70004E-001	0.00000E+000	8	...........	1367.14
	829	83	3.60073E-001	-1.00035E-006	0.00000E+000	3.60007E-001	0.00000E+000	8	...........	1367.14
	830	83.1	3.50076E-001	-9.93434E-007	0.00000E+000	3.50009E-001	0.00000E+000	8	...........	1367.14
	831	83.2	3.40082E-001	-9.89940E-007	0.00000E+000	3.40012E-001	0.00000E+000	8	...........	1367.14
	832	83.3	3.30082E-001	-9.88961E-007	0.00000E+000	3.30014E-001	0.00000E+000	8	...........	1367.14
	833	83.4	3.20091E-001	-9.87273E-007	0.00000E+000	3.20017E-001	0.00000E+000	8	...........	1367.14
	834	83.5	3.10088E-001	-9.86361E-007	0.00000E+000	3.10020E-001	0.00000E+000	8	...........	1367.14
	835	83.6	3.00078E-001	-9.82967E-007	0.00000E+000	3.00022E-001	0.00000E+000	8	...........	1367.14
	836	83.7	2.90085E-001	-9.81097E-007	0.00000E+000	2.90025E-001	0.00000E+000	8	...........	1367.14
	837	83.8	2.80039E-001	-9.80341E-007	0.00000E+000	2.79977E-001	0.00000E+000	8	...........	1367.14
	838	83.9	2.70051E-001	-9.69887E-007	0.00000E+000	2.69980E-001	0.00000E+000	8	...........	1367.14
	839	84	2.60055E-001	-9.63227E-007	0.00000E+000	2.59982E-001	0.00000E+000	8	...........	1367.14
	840	84.1	2.50049E-001	-9.57255E-007	0.00000E+000	2.49985E-001	0.00000E+000	8	...........	1367.14