File: Test_Data_Files/20250509_ZG_IF0011_IIA42_E08_PBSair_PEDOT_CV50.DTA
EXPLAIN
TAG	CV
TITLE	LABEL	CV50	Test Identifier
DATE	LABEL	5/9/2025	Date
TIME	LABEL	15:33:14	Time
NOTES	NOTES	1	Notes...

PSTAT	PSTAT	REF600P-43058	Potentiostat
VINIT	POTEN	0.00000E+000	T	Initial E (V)
VLIMIT1	POTEN	-9.00000E-001	F	Scan Limit 1 (V)
VLIMIT2	POTEN	6.00000E-001	F	Scan Limit 2 (V)
VFINAL	POTEN	0.00000E+000	T	Final E (V)
SCANRATE	QUANT	4.99999E+001	Scan Rate (mV/s)
STEPSIZE	QUANT	1.00000E+001	Step Size (mV)
CYCLES	IQUANT	3	Cycles (#)
IMODE	SELECTOR	1	I/E Range Mode
IRANGE	QUANT	1.00000E-003	Max Current (mA)
AREA	QUANT	1.00000E+000	Sample Area (cm^2)
EQDELAY	QUANT	5.00000E+000	Equil. Time (s)
IRCOMP	SELECTOR	0	IRComp
PFCOR	QUANT	5.00000E+001	PF Corr. (ohm)
SAMPLINGMODE	SELECTOR	2	Sampling Mode
EOC	QUANT	0.1530634	Open Circuit (V)
ELECTRODETYPE	SELECTOR	0	Electrode Type
STRIPPING	TOGGLE	F	Used for Stripping
SEQUENCER	TOGGLE	TRUE	Run as Sequence
PSTATMODEL	IQUANT	7	Pstat Model
PSTATSECTION	LABEL	REF600P-43058	Pstat Section
PSTATSERIALNO	LABEL	43058	Pstat Serial Number
CTRLMODE	IQUANT	1	Control Mode
ELECTROMETER	IQUANT	0	RE=0 or CS=1
IESTAB	IQUANT	2	I/E Stability
CASPEED	IQUANT	4	Control Amp Speed
CONVENTION	IQUANT	1	Current Convention
ICHRANGE	IQUANT	2	Ich Range
ICHRANGEMODE	TOGGLE	F	Ich Auto Range
ICHOFFSETENABLE	TOGGLE	F	Ich Offset Enable
ICHOFFSET	QUANT	0	Ich Offset (V)
ICHFILTER	IQUANT	2	Ich Filter
VCHRANGE	IQUANT	2	Vch Range
VCHRANGEMODE	TOGGLE	F	Vch Auto Range
VCHOFFSETENABLE	TOGGLE	F	Vch Offset Enable
VCHOFFSET	QUANT	0	Vch Offset (V)
VCHFILTER	IQUANT	2	Vch Filter
ACHRANGE	IQUANT	2	Ach Range
ACHOFFSETENABLE	TOGGLE	F	Ach Offset Enable
ACHOFFSET	QUANT	0	Ach Offset (V)
ACHFILTER	IQUANT	1	Ach Filter
IERANGELOWERLIMIT	IQUANT	1	I/E Range Lower Limit
IERANGEMODE	TOGGLE	F	I/E AutoRange
IERANGE	IQUANT	6	I/E Range
POSFEEDENABLE	TOGGLE	F	Positive Feedback IR Comp
POSFEEDRESISTANCE	QUANT	0	Positive Feedback Resistance (ohm)
ACHSELECT	IQUANT	4	Ach Select
SENSECABLEID	IQUANT	7	Sense Cable ID
PWRCABLEID	IQUANT	7	Power Cable ID
DCCALDATE	LABEL	5/8/2025	DC Calibration Date
ACCALDATE	LABEL	5/8/2025	AC Calibration Date
THERMOSELECT	IQUANT	1	Thermo Select
FRAMEWORKVERSION	LABEL	7.10.4	Framework Version
INSTRUMENTVERSION	LABEL	5.01	Instrument Version
COMMVERSION	LABEL	5.10	Communications Version
CPUPLDVERSION	LABEL	6.00	CPU PLD Version
CTRLPLDVERSION	LABEL	3.21	CTRL PLD Version
PSTATPLDVERSION	LABEL	0.00	PSTAT PLD Version
CURVE1	TABLE
	Pt	T	Vf	Im	Vu	Sig	Ach	IERange	Over	Temp
	#	s	V vs. Ref.	A	V	V	V	#	bits	deg C
	0	0.2	1.53120E-001	4.80852E-010	0.00000E+000	1.53050E-001	1.43787E-003	6	...........	-327.66
	1	0.4	1.43181E-001	-2.99046E-008	0.00000E+000	1.43050E-001	1.44241E-003	6	...........	-327.66
	2	0.6	1.33120E-001	-3.09021E-008	0.00000E+000	1.33050E-001	1.44112E-003	6	...........	-327.66
	3	0.8	1.23125E-001	-3.12537E-008	0.00000E+000	1.23050E-001	1.44254E-003	6	...........	-327.66
	4	1	1.13125E-001	-3.15623E-008	0.00000E+000	1.13050E-001	1.44491E-003	6	...........	-327.66
	5	1.2	1.03167E-001	-3.18319E-008	0.00000E+000	1.03050E-001	1.44391E-003	6	...........	-327.66
	6	1.4	9.31081E-002	-3.20491E-008	0.00000E+000	9.30500E-002	1.43406E-003	6	...........	-327.66
	7	1.6	8.30948E-002	-3.23463E-008	0.00000E+000	8.30500E-002	1.44077E-003	6	...........	-327.66
	8	1.8	7.31120E-002	-3.26393E-008	0.00000E+000	7.30500E-002	1.43907E-003	6	...........	-327.66
	9	2	6.31787E-002	-3.28918E-008	0.00000E+000	6.30500E-002	1.45581E-003	6	...........	-327.66
	10	2.2	5.30984E-002	-3.32095E-008	0.00000E+000	5.30500E-002	1.43217E-003	6	...........	-327.66
	11	2.4	4.31274E-002	-3.35612E-008	0.00000E+000	4.30500E-002	1.43721E-003	6	...........	-327.66
	12	2.6	3.31081E-002	-3.38975E-008	0.00000E+000	3.30500E-002	1.44751E-003	6	...........	-327.66
	13	2.8	2.31639E-002	-3.42181E-008	0.00000E+000	2.30500E-002	1.44169E-003	6	...........	-327.66
	14	3	1.31117E-002	-3.45323E-008	0.00000E+000	1.30500E-002	1.43911E-003	6	...........	-327.66
	15	3.2	3.11694E-003	-3.49242E-008	0.00000E+000	3.04998E-003	1.43320E-003	6	...........	-327.66
	16	3.4	-6.94250E-003	-3.53733E-008	0.00000E+000	-6.95001E-003	1.43519E-003	6	...........	-327.66
	17	3.6	-1.68218E-002	-3.56951E-008	0.00000E+000	-1.69500E-002	1.44361E-003	6	...........	-327.66
	18	3.8	-2.69296E-002	-3.61343E-008	0.00000E+000	-2.69500E-002	1.44349E-003	6	...........	-327.66
	19	4	-3.67982E-002	-3.65376E-008	0.00000E+000	-3.69500E-002	1.45985E-003	6	...........	-327.66
	20	4.2	-4.69372E-002	-3.70672E-008	0.00000E+000	-4.69500E-002	1.44508E-003	6	...........	-327.66
	21	4.4	-5.68288E-002	-3.74766E-008	0.00000E+000	-5.69500E-002	1.44334E-003	6	...........	-327.66
	22	4.6	-6.68876E-002	-3.79218E-008	0.00000E+000	-6.69500E-002	1.43367E-003	6	...........	-327.66
	23	4.8	-7.68936E-002	-3.84014E-008	0.00000E+000	-7.69500E-002	1.44137E-003	6	...........	-327.66
	24	5	-8.69117E-002	-3.88882E-008	0.00000E+000	-8.69500E-002	1.43467E-003	6	...........	-327.66
	25	5.2	-9.68347E-002	-3.94312E-008	0.00000E+000	-9.69500E-002	1.43687E-003	6	...........	-327.66
	26	5.4	-1.06938E-001	-3.99016E-008	0.00000E+000	-1.06950E-001	1.44297E-003	6	...........	-327.66
	27	5.6	-1.16857E-001	-4.04902E-008	0.00000E+000	-1.16950E-001	1.43889E-003	6	...........	-327.66
	28	5.8	-1.26954E-001	-4.10777E-008	0.00000E+000	-1.26950E-001	1.44342E-003	6	...........	-327.66
	29	6	-1.36826E-001	-4.16923E-008	0.00000E+000	-1.36950E-001	1.44861E-003	6	...........	-327.66
	30	6.2	-1.46919E-001	-4.22888E-008	0.00000E+000	-1.46950E-001	1.43362E-003	6	...........	-327.66
	31	6.4	-1.56897E-001	-4.28780E-008	0.00000E+000	-1.56950E-001	1.43971E-003	6	...........	-327.66
	32	6.6	-1.66888E-001	-4.36094E-008	0.00000E+000	-1.66950E-001	1.44644E-003	6	...........	-327.66
	33	6.8	-1.76828E-001	-4.42666E-008	0.00000E+000	-1.76950E-001	1.43846E-003	6	...........	-327.66
	34	7	-1.86923E-001	-4.49878E-008	0.00000E+000	-1.86950E-001	1.44723E-003	6	...........	-327.66
	35	7.2	-1.96887E-001	-4.57064E-008	0.00000E+000	-1.96950E-001	1.44631E-003	6	...........	-327.66
	36	7.4	-2.06892E-001	-4.65201E-008	0.00000E+000	-2.06950E-001	1.44252E-003	6	...........	-327.66
	37	7.6	-2.16797E-001	-4.72619E-008	0.00000E+000	-2.16950E-001	1.45294E-003	6	...........	-327.66
	38	7.8	-2.26885E-001	-4.80431E-008	0.00000E+000	-2.26950E-001	1.43819E-003	6	...........	-327.66
	39	8	-2.36862E-001	-4.88870E-008	0.00000E+000	-2.36950E-001	1.43829E-003	6	...........	-327.66
	40	8.2	-2.46875E-001	-4.96998E-008	0.00000E+000	-2.46950E-001	1.44334E-003	6	...........	-327.66
	41	8.4	-2.56815E-001	-5.05261E-008	0.00000E+000	-2.56950E-001	1.44331E-003	6	...........	-327.66
	42	8.6	-2.66840E-001	-5.13353E-008	0.00000E+000	-2.66950E-001	1.44261E-003	6	...........	-327.66
	43	8.8	-2.76895E-001	-5.22225E-008	0.00000E+000	-2.76950E-001	1.45615E-003	6	...........	-327.66
	44	9	-2.86869E-001	-5.30357E-008	0.00000E+000	-2.86950E-001	1.44034E-003	6	...........	-327.66
	45	9.2	-2.96808E-001	-5.39147E-008	0.00000E+000	-2.96950E-001	1.44934E-003	6	...........	-327.66
	46	9.4	-3.06905E-001	-5.48262E-008	0.00000E+000	-3.06950E-001	1.43190E-003	6	...........	-327.66
	47	9.6	-3.16852E-001	-5.57050E-008	0.00000E+000	-3.16950E-001	1.43529E-003	6	...........	-327.66
	48	9.8	-3.26908E-001	-5.66493E-008	0.00000E+000	-3.26950E-001	1.44493E-003	6	...........	-327.66
	49	10	-3.36822E-001	-5.75356E-008	0.00000E+000	-3.36950E-001	1.43926E-003	6	...........	-327.66
	50	10.2	-3.46881E-001	-5.84924E-008	0.00000E+000	-3.46950E-001	1.44418E-003	6	...........	-327.66
	51	10.4	-3.56907E-001	-5.94643E-008	0.00000E+000	-3.56950E-001	1.44289E-003	6	...........	-327.66
	52	10.6	-3.66873E-001	-6.04320E-008	0.00000E+000	-3.66950E-001	1.44763E-003	6	...........	-327.66
	53	10.8	-3.76816E-001	-6.13518E-008	0.00000E+000	-3.76950E-001	1.44287E-003	6	...........	-327.66
	54	11	-3.86876E-001	-6.22416E-008	0.00000E+000	-3.86950E-001	1.43242E-003	6	...........	-327.66
	55	11.2	-3.96847E-001	-6.32393E-008	0.00000E+000	-3.96950E-001	1.43676E-003	6	...........	-327.66
	56	11.4	-4.06900E-001	-6.42445E-008	0.00000E+000	-4.06950E-001	1.44111E-003	6	...........	-327.66
	57	11.6	-4.16781E-001	-6.51311E-008	0.00000E+000	-4.16950E-001	1.45126E-003	6	...........	-327.66
	58	11.8	-4.26829E-001	-6.60408E-008	0.00000E+000	-4.26950E-001	1.44793E-003	6	...........	-327.66
	59	12	-4.36836E-001	-6.69696E-008	0.00000E+000	-4.36950E-001	1.45771E-003	6	...........	-327.66
	60	12.2	-4.46725E-001	-6.78846E-008	0.00000E+000	-4.46950E-001	1.43706E-003	6	...........	-327.66
	61	12.4	-4.56767E-001	-6.88919E-008	0.00000E+000	-4.56950E-001	1.45231E-003	6	...........	-327.66
	62	12.6	-4.66817E-001	-6.98802E-008	0.00000E+000	-4.66950E-001	1.43597E-003	6	...........	-327.66
	63	12.8	-4.76754E-001	-7.08656E-008	0.00000E+000	-4.76950E-001	1.44728E-003	6	...........	-327.66
	64	13	-4.86847E-001	-7.19108E-008	0.00000E+000	-4.86950E-001	1.44651E-003	6	...........	-327.66
	65	13.2	-4.96732E-001	-7.28516E-008	0.00000E+000	-4.96950E-001	1.45483E-003	6	...........	-327.66
	66	13.4	-5.06831E-001	-7.40329E-008	0.00000E+000	-5.06950E-001	1.44606E-003	6	...........	-327.66
	67	13.6	-5.16808E-001	-7.50310E-008	0.00000E+000	-5.16950E-001	1.43881E-003	6	...........	-327.66
	68	13.8	-5.26840E-001	-7.61488E-008	0.00000E+000	-5.26950E-001	1.46215E-003	6	...........	-327.66
	69	14	-5.36780E-001	-7.72811E-008	0.00000E+000	-5.36950E-001	1.45528E-003	6	...........	-327.66
	70	14.2	-5.46847E-001	-7.84302E-008	0.00000E+000	-5.46950E-001	1.44192E-003	6	...........	-327.66
	71	14.4	-5.56807E-001	-7.95998E-008	0.00000E+000	-5.56950E-001	1.44588E-003	6	...........	-327.66
	72	14.6	-5.66859E-001	-8.05888E-008	0.00000E+000	-5.66950E-001	1.43881E-003	6	...........	-327.66
	73	14.8	-5.76757E-001	-8.17447E-008	0.00000E+000	-5.76950E-001	1.45676E-003	6	...........	-327.66
	74	15	-5.86846E-001	-8.27398E-008	0.00000E+000	-5.86950E-001	1.44793E-003	6	...........	-327.66
	75	15.2	-5.96831E-001	-8.38210E-008	0.00000E+000	-5.96950E-001	1.44836E-003	6	...........	-327.66
	76	15.4	-6.06839E-001	-8.47841E-008	0.00000E+000	-6.06950E-001	1.44784E-003	6	...........	-327.66
	77	15.6	-6.16773E-001	-8.57786E-008	0.00000E+000	-6.16950E-001	1.44638E-003	6	...........	-327.66
	78	15.8	-6.26783E-001	-8.66548E-008	0.00000E+000	-6.26950E-001	1.44786E-003	6	...........	-327.66
	79	16	-6.36811E-001	-8.75246E-008	0.00000E+000	-6.36950E-001	1.45174E-003	6	...........	-327.66
	80	16.2	-6.46824E-001	-8.83555E-008	0.00000E+000	-6.46950E-001	1.44483E-003	6	...........	-327.66
	81	16.4	-6.56732E-001	-8.89248E-008	0.00000E+000	-6.56950E-001	1.44541E-003	6	...........	-327.66
	82	16.6	-6.66813E-001	-8.94680E-008	0.00000E+000	-6.66950E-001	1.45433E-003	6	...........	-327.66
	83	16.8	-6.76779E-001	-8.97939E-008	0.00000E+000	-6.76950E-001	1.45204E-003	6	...........	-327.66
	84	17	-6.86818E-001	-8.99174E-008	0.00000E+000	-6.86950E-001	1.45446E-003	6	...........	-327.66
	85	17.2	-6.96802E-001	-8.96201E-008	0.00000E+000	-6.96950E-001	1.44046E-003	6	...........	-327.66
	86	17.4	-7.06788E-001	-8.88442E-008	0.00000E+000	-7.06950E-001	1.43497E-003	6	...........	-327.66
	87	17.6	-7.16820E-001	-8.76623E-008	0.00000E+000	-7.16950E-001	1.44221E-003	6	...........	-327.66
	88	17.8	-7.26825E-001	-8.58365E-008	0.00000E+000	-7.26950E-001	1.44429E-003	6	...........	-327.66
	89	18	-7.36768E-001	-8.34754E-008	0.00000E+000	-7.36950E-001	1.46295E-003	6	...........	-327.66
	90	18.2	-7.46827E-001	-8.04415E-008	0.00000E+000	-7.46950E-001	1.43937E-003	6	...........	-327.66
	91	18.4	-7.56765E-001	-7.70642E-008	0.00000E+000	-7.56950E-001	1.44721E-003	6	...........	-327.66
	92	18.6	-7.66837E-001	-7.33243E-008	0.00000E+000	-7.66950E-001	1.44721E-003	6	...........	-327.66
	93	18.8	-7.76788E-001	-6.93391E-008	0.00000E+000	-7.76950E-001	1.44014E-003	6	...........	-327.66
	94	19	-7.86793E-001	-6.51073E-008	0.00000E+000	-7.86950E-001	1.44332E-003	6	...........	-327.66
	95	19.2	-7.96830E-001	-6.09180E-008	0.00000E+000	-7.96950E-001	1.43147E-003	6	...........	-327.66
	96	19.4	-8.06810E-001	-5.67852E-008	0.00000E+000	-8.06950E-001	1.44579E-003	6	...........	-327.66
	97	19.6	-8.16753E-001	-5.27638E-008	0.00000E+000	-8.16950E-001	1.44556E-003	6	...........	-327.66
	98	19.8	-8.26836E-001	-4.90204E-008	0.00000E+000	-8.26950E-001	1.45156E-003	6	...........	-327.66
	99	20	-8.36771E-001	-4.55316E-008	0.00000E+000	-8.36950E-001	1.44599E-003	6	...........	-327.66
	100	20.2	-8.46840E-001	-4.23767E-008	0.00000E+000	-8.46950E-001	1.45048E-003	6	...........	-327.66
	101	20.4	-8.56722E-001	-3.94491E-008	0.00000E+000	-8.56950E-001	1.45133E-003	6	...........	-327.66
	102	20.6	-8.66832E-001	-3.69887E-008	0.00000E+000	-8.66950E-001	1.43667E-003	6	...........	-327.66
	103	20.8	-8.76777E-001	-3.48371E-008	0.00000E+000	-8.76950E-001	1.44319E-003	6	...........	-327.66
	104	21	-8.86810E-001	-3.28395E-008	0.00000E+000	-8.86950E-001	1.44374E-003	6	...........	-327.66
	105	21.2	-8.96759E-001	-3.10594E-008	0.00000E+000	-8.96950E-001	1.44586E-003	6	...........	-327.66
	106	21.4	-8.86816E-001	-2.60287E-008	0.00000E+000	-8.86950E-001	1.44864E-003	6	...........	-327.66
	107	21.6	-8.76828E-001	-2.33351E-008	0.00000E+000	-8.76950E-001	1.43734E-003	6	...........	-327.66
	108	21.8	-8.66868E-001	-2.12645E-008	0.00000E+000	-8.66950E-001	1.43709E-003	6	...........	-327.66
	109	22	-8.56851E-001	-1.93919E-008	0.00000E+000	-8.56950E-001	1.43879E-003	6	...........	-327.66
	110	22.2	-8.46865E-001	-1.77861E-008	0.00000E+000	-8.46950E-001	1.44091E-003	6	...........	-327.66
	111	22.4	-8.36869E-001	-1.61781E-008	0.00000E+000	-8.36950E-001	1.43467E-003	6	...........	-327.66
	112	22.6	-8.26861E-001	-1.44508E-008	0.00000E+000	-8.26950E-001	1.43737E-003	6	...........	-327.66
	113	22.8	-8.16821E-001	-1.26444E-008	0.00000E+000	-8.16950E-001	1.43459E-003	6	...........	-327.66
	114	23	-8.06828E-001	-1.06410E-008	0.00000E+000	-8.06950E-001	1.44393E-003	6	...........	-327.66
	115	23.2	-7.96871E-001	-8.40409E-009	0.00000E+000	-7.96950E-001	1.43664E-003	6	...........	-327.66
	116	23.4	-7.86837E-001	-5.86234E-009	0.00000E+000	-7.86950E-001	1.44129E-003	6	...........	-327.66
	117	23.6	-7.76827E-001	-3.03845E-009	0.00000E+000	-7.76950E-001	1.45136E-003	6	...........	-327.66
	118	23.8	-7.66871E-001	1.92035E-010	0.00000E+000	-7.66950E-001	1.44229E-003	6	...........	-327.66
	119	24	-7.56851E-001	3.85701E-009	0.00000E+000	-7.56950E-001	1.45288E-003	6	...........	-327.66
	120	24.2	-7.46872E-001	7.74563E-009	0.00000E+000	-7.46950E-001	1.44094E-003	6	...........	-327.66
	121	24.4	-7.36833E-001	1.17549E-008	0.00000E+000	-7.36950E-001	1.44954E-003	6	...........	-327.66
	122	24.6	-7.26871E-001	1.58698E-008	0.00000E+000	-7.26950E-001	1.43969E-003	6	...........	-327.66
	123	24.8	-7.16887E-001	1.97575E-008	0.00000E+000	-7.16950E-001	1.43856E-003	6	...........	-327.66
	124	25	-7.06864E-001	2.30170E-008	0.00000E+000	-7.06950E-001	1.43672E-003	6	...........	-327.66
	125	25.2	-6.96833E-001	2.52585E-008	0.00000E+000	-6.96950E-001	1.44107E-003	6	...........	-327.66
	126	25.4	-6.86866E-001	2.66134E-008	0.00000E+000	-6.86950E-001	1.44704E-003	6	...........	-327.66
	127	25.6	-6.76887E-001	2.73338E-008	0.00000E+000	-6.76950E-001	1.45625E-003	6	...........	-327.66
	128	25.8	-6.66846E-001	2.76154E-008	0.00000E+000	-6.66950E-001	1.44881E-003	6	...........	-327.66
	129	26	-6.56805E-001	2.77054E-008	0.00000E+000	-6.56950E-001	1.44364E-003	6	...........	-327.66
	130	26.2	-6.46849E-001	2.77985E-008	0.00000E+000	-6.46950E-001	1.43906E-003	6	...........	-327.66
	131	26.4	-6.36875E-001	2.80220E-008	0.00000E+000	-6.36950E-001	1.43727E-003	6	...........	-327.66
	132	26.6	-6.26836E-001	2.83005E-008	0.00000E+000	-6.26950E-001	1.45046E-003	6	...........	-327.66
	133	26.8	-6.16826E-001	2.86099E-008	0.00000E+000	-6.16950E-001	1.45485E-003	6	...........	-327.66
	134	27	-6.06899E-001	2.89426E-008	0.00000E+000	-6.06950E-001	1.44784E-003	6	...........	-327.66
	135	27.2	-5.96922E-001	2.93158E-008	0.00000E+000	-5.96950E-001	1.44291E-003	6	...........	-327.66
	136	27.4	-5.86887E-001	2.97736E-008	0.00000E+000	-5.86950E-001	1.45026E-003	6	...........	-327.66
	137	27.6	-5.76806E-001	3.01438E-008	0.00000E+000	-5.76950E-001	1.46200E-003	6	...........	-327.66
	138	27.8	-5.66877E-001	3.05624E-008	0.00000E+000	-5.66950E-001	1.44052E-003	6	...........	-327.66
	139	28	-5.56921E-001	3.09612E-008	0.00000E+000	-5.56950E-001	1.44129E-003	6	...........	-327.66
	140	28.2	-5.46889E-001	3.14750E-008	0.00000E+000	-5.46950E-001	1.44433E-003	6	...........	-327.66
	141	28.4	-5.36849E-001	3.18960E-008	0.00000E+000	-5.36950E-001	1.45435E-003	6	...........	-327.66
	142	28.6	-5.26890E-001	3.23521E-008	0.00000E+000	-5.26950E-001	1.45680E-003	6	...........	-327.66
	143	28.8	-5.16911E-001	3.29225E-008	0.00000E+000	-5.16950E-001	1.44524E-003	6	...........	-327.66
	144	29	-5.06908E-001	3.34165E-008	0.00000E+000	-5.06950E-001	1.45531E-003	6	...........	-327.66
	145	29.2	-4.96804E-001	3.39876E-008	0.00000E+000	-4.96950E-001	1.44608E-003	6	...........	-327.66
	146	29.4	-4.86888E-001	3.45631E-008	0.00000E+000	-4.86950E-001	1.44764E-003	6	...........	-327.66
	147	29.6	-4.76861E-001	3.51613E-008	0.00000E+000	-4.76950E-001	1.44813E-003	6	...........	-327.66
	148	29.8	-4.66885E-001	3.57210E-008	0.00000E+000	-4.66950E-001	1.44638E-003	6	...........	-327.66
	149	30	-4.56844E-001	3.62981E-008	0.00000E+000	-4.56950E-001	1.45748E-003	6	...........	-327.66
	150	30.2	-4.46874E-001	3.69827E-008	0.00000E+000	-4.46950E-001	1.46457E-003	6	...........	-327.66
	151	30.4	-4.36870E-001	3.75845E-008	0.00000E+000	-4.36950E-001	1.45885E-003	6	...........	-327.66
	152	30.6	-4.26904E-001	3.82269E-008	0.00000E+000	-4.26950E-001	1.46103E-003	6	...........	-327.66
	153	30.8	-4.16829E-001	3.88170E-008	0.00000E+000	-4.16950E-001	1.45189E-003	6	...........	-327.66
	154	31	-4.06947E-001	3.94685E-008	0.00000E+000	-4.06950E-001	1.44859E-003	6	...........	-327.66
	155	31.2	-3.96895E-001	4.01462E-008	0.00000E+000	-3.96950E-001	1.45233E-003	6	...........	-327.66
	156	31.4	-3.86904E-001	4.07973E-008	0.00000E+000	-3.86950E-001	1.44976E-003	6	...........	-327.66
	157	31.6	-3.76862E-001	4.14097E-008	0.00000E+000	-3.76950E-001	1.45925E-003	6	...........	-327.66
	158	31.8	-3.66906E-001	4.20054E-008	0.00000E+000	-3.66950E-001	1.46468E-003	6	...........	-327.66
	159	32	-3.56921E-001	4.26332E-008	0.00000E+000	-3.56950E-001	1.44821E-003	6	...........	-327.66
	160	32.2	-3.46932E-001	4.31597E-008	0.00000E+000	-3.46950E-001	1.45039E-003	6	...........	-327.66
	161	32.4	-3.36850E-001	4.37090E-008	0.00000E+000	-3.36950E-001	1.45460E-003	6	...........	-327.66
	162	32.6	-3.26952E-001	4.41393E-008	0.00000E+000	-3.26950E-001	1.45408E-003	6	...........	-327.66
	163	32.8	-3.16897E-001	4.47291E-008	0.00000E+000	-3.16950E-001	1.44459E-003	6	...........	-327.66
	164	33	-3.06939E-001	4.52003E-008	0.00000E+000	-3.06950E-001	1.44029E-003	6	...........	-327.66
	165	33.2	-2.96851E-001	4.56508E-008	0.00000E+000	-2.96950E-001	1.44861E-003	6	...........	-327.66
	166	33.4	-2.86893E-001	4.60697E-008	0.00000E+000	-2.86950E-001	1.45616E-003	6	...........	-327.66
	167	33.6	-2.76938E-001	4.64299E-008	0.00000E+000	-2.76950E-001	1.46211E-003	6	...........	-327.66
	168	33.8	-2.66888E-001	4.68873E-008	0.00000E+000	-2.66950E-001	1.45728E-003	6	...........	-327.66
	169	34	-2.56847E-001	4.72491E-008	0.00000E+000	-2.56950E-001	1.45401E-003	6	...........	-327.66
	170	34.2	-2.46930E-001	4.76331E-008	0.00000E+000	-2.46950E-001	1.44506E-003	6	...........	-327.66
	171	34.4	-2.36942E-001	4.79053E-008	0.00000E+000	-2.36950E-001	1.44988E-003	6	...........	-327.66
	172	34.6	-2.26932E-001	4.82692E-008	0.00000E+000	-2.26950E-001	1.45056E-003	6	...........	-327.66
	173	34.8	-2.16841E-001	4.85544E-008	0.00000E+000	-2.16950E-001	1.45855E-003	6	...........	-327.66
	174	35	-2.06906E-001	4.88803E-008	0.00000E+000	-2.06950E-001	1.45781E-003	6	...........	-327.66
	175	35.2	-1.96960E-001	4.92091E-008	0.00000E+000	-1.96950E-001	1.45995E-003	6	...........	-327.66
	176	35.4	-1.86949E-001	4.93445E-008	0.00000E+000	-1.86950E-001	1.45706E-003	6	...........	-327.66
	177	35.6	-1.76865E-001	4.95419E-008	0.00000E+000	-1.76950E-001	1.45855E-003	6	...........	-327.66
	178	35.8	-1.66936E-001	4.98496E-008	0.00000E+000	-1.66950E-001	1.46432E-003	6	...........	-327.66
	179	36	-1.56932E-001	5.01373E-008	0.00000E+000	-1.56950E-001	1.45721E-003	6	...........	-327.66
	180	36.2	-1.46982E-001	5.01697E-008	0.00000E+000	-1.46950E-001	1.45071E-003	6	...........	-327.66
	181	36.4	-1.36878E-001	5.04021E-008	0.00000E+000	-1.36950E-001	1.46336E-003	6	...........	-327.66
	182	36.6	-1.26998E-001	5.05393E-008	0.00000E+000	-1.26950E-001	1.45084E-003	6	...........	-327.66
	183	36.8	-1.16902E-001	5.09391E-008	0.00000E+000	-1.16950E-001	1.46143E-003	6	...........	-327.66
	184	37	-1.06967E-001	5.11092E-008	0.00000E+000	-1.06950E-001	1.45338E-003	6	...........	-327.66
	185	37.2	-9.68899E-002	5.10300E-008	0.00000E+000	-9.69500E-002	1.45493E-003	6	...........	-327.66
	186	37.4	-8.69654E-002	5.12241E-008	0.00000E+000	-8.69500E-002	1.45538E-003	6	...........	-327.66
	187	37.6	-7.69343E-002	5.15309E-008	0.00000E+000	-7.69500E-002	1.44939E-003	6	...........	-327.66
	188	37.8	-6.69320E-002	5.16883E-008	0.00000E+000	-6.69500E-002	1.45590E-003	6	...........	-327.66
	189	38	-5.68490E-002	5.17362E-008	0.00000E+000	-5.69500E-002	1.46358E-003	6	...........	-327.66
	190	38.2	-4.69772E-002	5.16793E-008	0.00000E+000	-4.69500E-002	1.46106E-003	6	...........	-327.66
	191	38.4	-3.68771E-002	5.19724E-008	0.00000E+000	-3.69500E-002	1.46150E-003	6	...........	-327.66
	192	38.6	-2.69649E-002	5.20749E-008	0.00000E+000	-2.69500E-002	1.46251E-003	6	...........	-327.66
	193	38.8	-1.68510E-002	5.22245E-008	0.00000E+000	-1.69500E-002	1.46135E-003	6	...........	-327.66
	194	39	-6.96542E-003	5.21986E-008	0.00000E+000	-6.95001E-003	1.45356E-003	6	...........	-327.66
	195	39.2	3.06420E-003	5.23292E-008	0.00000E+000	3.04998E-003	1.44798E-003	6	...........	-327.66
	196	39.4	1.30891E-002	5.24758E-008	0.00000E+000	1.30500E-002	1.44556E-003	6	...........	-327.66
	197	39.6	2.31407E-002	5.24841E-008	0.00000E+000	2.30500E-002	1.46133E-003	6	...........	-327.66
	198	39.8	3.30767E-002	5.25766E-008	0.00000E+000	3.30500E-002	1.45925E-003	6	...........	-327.66
	199	40	4.30905E-002	5.27668E-008	0.00000E+000	4.30500E-002	1.45701E-003	6	...........	-327.66
	200	40.2	5.30869E-002	5.28862E-008	0.00000E+000	5.30500E-002	1.45660E-003	6	...........	-327.66
	201	40.4	6.31328E-002	5.29830E-008	0.00000E+000	6.30500E-002	1.46718E-003	6	...........	-327.66
	202	40.6	7.31117E-002	5.30863E-008	0.00000E+000	7.30500E-002	1.46105E-003	6	...........	-327.66
	203	40.8	8.30534E-002	5.32634E-008	0.00000E+000	8.30500E-002	1.45815E-003	6	...........	-327.66
	204	41	9.30900E-002	5.35234E-008	0.00000E+000	9.30500E-002	1.45253E-003	6	...........	-327.66
	205	41.2	1.03120E-001	5.35954E-008	0.00000E+000	1.03050E-001	1.45963E-003	6	...........	-327.66
	206	41.4	1.13082E-001	5.37420E-008	0.00000E+000	1.13050E-001	1.46193E-003	6	...........	-327.66
	207	41.6	1.23103E-001	5.40094E-008	0.00000E+000	1.23050E-001	1.46095E-003	6	...........	-327.66
	208	41.8	1.33097E-001	5.41843E-008	0.00000E+000	1.33050E-001	1.45851E-003	6	...........	-327.66
	209	42	1.43120E-001	5.43591E-008	0.00000E+000	1.43050E-001	1.45596E-003	6	...........	-327.66
	210	42.2	1.53121E-001	5.45375E-008	0.00000E+000	1.53050E-001	1.46528E-003	6	...........	-327.66
	211	42.4	1.63071E-001	5.47610E-008	0.00000E+000	1.63050E-001	1.45836E-003	6	...........	-327.66
	212	42.6	1.73121E-001	5.48570E-008	0.00000E+000	1.73050E-001	1.45581E-003	6	...........	-327.66
	213	42.8	1.83130E-001	5.49778E-008	0.00000E+000	1.83050E-001	1.46638E-003	6	...........	-327.66
	214	43	1.93106E-001	5.51325E-008	0.00000E+000	1.93050E-001	1.45876E-003	6	...........	-327.66
	215	43.2	2.03094E-001	5.52595E-008	0.00000E+000	2.03050E-001	1.45933E-003	6	...........	-327.66
	216	43.4	2.13034E-001	5.53907E-008	0.00000E+000	2.13050E-001	1.45308E-003	6	...........	-327.66
	217	43.6	2.23099E-001	5.54680E-008	0.00000E+000	2.23050E-001	1.45143E-003	6	...........	-327.66
	218	43.8	2.33067E-001	5.55699E-008	0.00000E+000	2.33050E-001	1.45313E-003	6	...........	-327.66
	219	44	2.43050E-001	5.57388E-008	0.00000E+000	2.43050E-001	1.45109E-003	6	...........	-327.66
	220	44.2	2.53080E-001	5.58964E-008	0.00000E+000	2.53050E-001	1.44366E-003	6	...........	-327.66
	221	44.4	2.63080E-001	5.59692E-008	0.00000E+000	2.63050E-001	1.45456E-003	6	...........	-327.66
	222	44.6	2.73079E-001	5.60731E-008	0.00000E+000	2.73050E-001	1.46405E-003	6	...........	-327.66
	223	44.8	2.83022E-001	5.62919E-008	0.00000E+000	2.83050E-001	1.46326E-003	6	...........	-327.66
	224	45	2.93011E-001	5.64159E-008	0.00000E+000	2.93050E-001	1.46382E-003	6	...........	-327.66
	225	45.2	3.03091E-001	5.66150E-008	0.00000E+000	3.03050E-001	1.45415E-003	6	...........	-327.66
	226	45.4	3.13032E-001	5.67275E-008	0.00000E+000	3.13050E-001	1.45340E-003	6	...........	-327.66
	227	45.6	3.23063E-001	5.69854E-008	0.00000E+000	3.23050E-001	1.45139E-003	6	...........	-327.66
	228	45.8	3.33054E-001	5.72213E-008	0.00000E+000	3.33050E-001	1.44493E-003	6	...........	-327.66
	229	46	3.43093E-001	5.74701E-008	0.00000E+000	3.43050E-001	1.45810E-003	6	...........	-327.66
	230	46.2	3.53072E-001	5.76998E-008	0.00000E+000	3.53050E-001	1.45376E-003	6	...........	-327.66
	231	46.4	3.63004E-001	5.80060E-008	0.00000E+000	3.63050E-001	1.45528E-003	6	...........	-327.66
	232	46.6	3.72969E-001	5.83808E-008	0.00000E+000	3.73050E-001	1.45610E-003	6	...........	-327.66
	233	46.8	3.83081E-001	5.86783E-008	0.00000E+000	3.83050E-001	1.45271E-003	6	...........	-327.66
	234	47	3.93019E-001	5.90014E-008	0.00000E+000	3.93050E-001	1.44946E-003	6	...........	-327.66
	235	47.2	4.03030E-001	5.94133E-008	0.00000E+000	4.03050E-001	1.44503E-003	6	...........	-327.66
	236	47.4	4.12992E-001	5.98210E-008	0.00000E+000	4.13050E-001	1.44954E-003	6	...........	-327.66
	237	47.6	4.23092E-001	6.01943E-008	0.00000E+000	4.23050E-001	1.46298E-003	6	...........	-327.66
	238	47.8	4.33051E-001	6.05858E-008	0.00000E+000	4.33050E-001	1.46028E-003	6	...........	-327.66
	239	48	4.42980E-001	6.10143E-008	0.00000E+000	4.43050E-001	1.46468E-003	6	...........	-327.66
	240	48.2	4.53032E-001	6.14712E-008	0.00000E+000	4.53050E-001	1.46208E-003	6	...........	-327.66
	241	48.4	4.63066E-001	6.19963E-008	0.00000E+000	4.63050E-001	1.46211E-003	6	...........	-327.66
	242	48.6	4.72989E-001	6.24211E-008	0.00000E+000	4.73050E-001	1.45298E-003	6	...........	-327.66
	243	48.8	4.82996E-001	6.29776E-008	0.00000E+000	4.83050E-001	1.45930E-003	6	...........	-327.66
	244	49	4.92970E-001	6.34471E-008	0.00000E+000	4.93050E-001	1.45515E-003	6	...........	-327.66
	245	49.2	5.03091E-001	6.39989E-008	0.00000E+000	5.03050E-001	1.45965E-003	6	...........	-327.66
	246	49.4	5.12986E-001	6.45492E-008	0.00000E+000	5.13050E-001	1.46158E-003	6	...........	-327.66
	247	49.6	5.22997E-001	6.51401E-008	0.00000E+000	5.23050E-001	1.46535E-003	6	...........	-327.66
	248	49.8	5.33013E-001	6.57601E-008	0.00000E+000	5.33050E-001	1.45940E-003	6	...........	-327.66
	249	50	5.43071E-001	6.63752E-008	0.00000E+000	5.43050E-001	1.46263E-003	6	...........	-327.66
	250	50.2	5.53005E-001	6.70358E-008	0.00000E+000	5.53050E-001	1.45683E-003	6	...........	-327.66
	251	50.4	5.63015E-001	6.77827E-008	0.00000E+000	5.63050E-001	1.45306E-003	6	...........	-327.66
	252	50.6	5.72981E-001	6.85701E-008	0.00000E+000	5.73050E-001	1.44863E-003	6	...........	-327.66
	253	50.8	5.83094E-001	6.94455E-008	0.00000E+000	5.83050E-001	1.46798E-003	6	...........	-327.66
	254	51	5.92968E-001	7.03526E-008	0.00000E+000	5.93050E-001	1.46622E-003	6	...........	-327.66
	255	51.2	6.03055E-001	7.14451E-008	0.00000E+000	6.03050E-001	1.46613E-003	6	...........	-327.66
CURVE2	TABLE
	Pt	T	Vf	Im	Vu	Sig	Ach	IERange	Over	Temp
	#	s	V vs. Ref.	A	V	V	V	#	bits	deg C
	256	51.4	5.89981E-001	-1.73818E-008	0.00000E+000	5.90000E-001	1.45563E-003	6	...........	-327.66
	257	51.6	5.79993E-001	-1.43186E-008	0.00000E+000	5.80000E-001	1.46782E-003	6	...........	-327.66
	258	51.8	5.69994E-001	-1.83941E-008	0.00000E+000	5.70000E-001	1.46040E-003	6	...........	-327.66
	259	52	5.59978E-001	-2.13810E-008	0.00000E+000	5.60000E-001	1.45113E-003	6	...........	-327.66
	260	52.2	5.49994E-001	-2.36338E-008	0.00000E+000	5.50000E-001	1.46376E-003	6	...........	-327.66
	261	52.4	5.39998E-001	-2.53474E-008	0.00000E+000	5.40000E-001	1.45009E-003	6	...........	-327.66
	262	52.6	5.30012E-001	-2.66841E-008	0.00000E+000	5.30000E-001	1.47072E-003	6	...........	-327.66
	263	52.8	5.19982E-001	-2.77741E-008	0.00000E+000	5.20000E-001	1.46173E-003	6	...........	-327.66
	264	53	5.09975E-001	-2.87048E-008	0.00000E+000	5.10000E-001	1.45613E-003	6	...........	-327.66
	265	53.2	5.00009E-001	-2.94889E-008	0.00000E+000	5.00000E-001	1.46970E-003	6	...........	-327.66
	266	53.4	4.89981E-001	-3.01763E-008	0.00000E+000	4.90000E-001	1.45866E-003	6	...........	-327.66
	267	53.6	4.79957E-001	-3.08486E-008	0.00000E+000	4.80000E-001	1.46565E-003	6	...........	-327.66
	268	53.8	4.69981E-001	-3.13645E-008	0.00000E+000	4.70000E-001	1.46817E-003	6	...........	-327.66
	269	54	4.59997E-001	-3.18820E-008	0.00000E+000	4.60000E-001	1.46617E-003	6	...........	-327.66
	270	54.2	4.50009E-001	-3.22372E-008	0.00000E+000	4.50000E-001	1.46898E-003	6	...........	-327.66
	271	54.4	4.39943E-001	-3.26934E-008	0.00000E+000	4.40000E-001	1.46633E-003	6	...........	-327.66
	272	54.6	4.29995E-001	-3.30399E-008	0.00000E+000	4.30000E-001	1.46745E-003	6	...........	-327.66
	273	54.8	4.20045E-001	-3.33666E-008	0.00000E+000	4.20000E-001	1.46171E-003	6	...........	-327.66
	274	55	4.09987E-001	-3.36321E-008	0.00000E+000	4.10000E-001	1.46947E-003	6	...........	-327.66
	275	55.2	3.99985E-001	-3.39572E-008	0.00000E+000	4.00000E-001	1.47317E-003	6	...........	-327.66
	276	55.4	3.89994E-001	-3.42442E-008	0.00000E+000	3.90000E-001	1.45835E-003	6	...........	-327.66
	277	55.6	3.80002E-001	-3.44727E-008	0.00000E+000	3.80000E-001	1.45803E-003	6	...........	-327.66
	278	55.8	3.70033E-001	-3.46864E-008	0.00000E+000	3.70000E-001	1.47025E-003	6	...........	-327.66
	279	56	3.59977E-001	-3.49990E-008	0.00000E+000	3.60000E-001	1.46957E-003	6	...........	-327.66
	280	56.2	3.50026E-001	-3.51640E-008	0.00000E+000	3.50000E-001	1.46905E-003	6	...........	-327.66
	281	56.4	3.40015E-001	-3.54593E-008	0.00000E+000	3.40000E-001	1.47352E-003	6	...........	-327.66
	282	56.6	3.30016E-001	-3.55650E-008	0.00000E+000	3.30000E-001	1.45603E-003	6	...........	-327.66
	283	56.8	3.19994E-001	-3.58386E-008	0.00000E+000	3.20000E-001	1.46306E-003	6	...........	-327.66
	284	57	3.09995E-001	-3.60215E-008	0.00000E+000	3.10000E-001	1.45545E-003	6	...........	-327.66
	285	57.2	3.00002E-001	-3.62592E-008	0.00000E+000	3.00000E-001	1.45623E-003	6	...........	-327.66
	286	57.4	2.90014E-001	-3.63329E-008	0.00000E+000	2.90000E-001	1.45420E-003	6	...........	-327.66
	287	57.6	2.79986E-001	-3.65694E-008	0.00000E+000	2.80000E-001	1.46725E-003	6	...........	-327.66
	288	57.8	2.70099E-001	-3.67179E-008	0.00000E+000	2.70000E-001	1.46318E-003	6	...........	-327.66
	289	58	2.60008E-001	-3.69717E-008	0.00000E+000	2.60000E-001	1.47290E-003	6	...........	-327.66
	290	58.2	2.50055E-001	-3.70201E-008	0.00000E+000	2.50000E-001	1.45945E-003	6	...........	-327.66
	291	58.4	2.40009E-001	-3.72458E-008	0.00000E+000	2.40000E-001	1.44994E-003	6	...........	-327.66
	292	58.6	2.30003E-001	-3.74760E-008	0.00000E+000	2.30000E-001	1.46437E-003	6	...........	-327.66
	293	58.8	2.20007E-001	-3.77014E-008	0.00000E+000	2.20000E-001	1.45151E-003	6	...........	-327.66
	294	59	2.10010E-001	-3.78007E-008	0.00000E+000	2.10000E-001	1.46305E-003	6	...........	-327.66
	295	59.2	2.00005E-001	-3.79829E-008	0.00000E+000	2.00000E-001	1.46870E-003	6	...........	-327.66
	296	59.4	1.90059E-001	-3.81375E-008	0.00000E+000	1.90000E-001	1.46852E-003	6	...........	-327.66
	297	59.6	1.80023E-001	-3.83352E-008	0.00000E+000	1.80000E-001	1.46562E-003	6	...........	-327.66
	298	59.8	1.70119E-001	-3.84791E-008	0.00000E+000	1.70000E-001	1.45623E-003	6	...........	-327.66
	299	60	1.60016E-001	-3.86919E-008	0.00000E+000	1.60000E-001	1.45436E-003	6	...........	-327.66
	300	60.2	1.50031E-001	-3.88254E-008	0.00000E+000	1.50000E-001	1.45666E-003	6	...........	-327.66
	301	60.4	1.40103E-001	-3.90565E-008	0.00000E+000	1.40000E-001	1.46882E-003	6	...........	-327.66
	302	60.6	1.30065E-001	-3.91791E-008	0.00000E+000	1.30000E-001	1.46225E-003	6	...........	-327.66
	303	60.8	1.20009E-001	-3.94279E-008	0.00000E+000	1.20000E-001	1.46040E-003	6	...........	-327.66
	304	61	1.10029E-001	-3.95657E-008	0.00000E+000	1.10000E-001	1.45981E-003	6	...........	-327.66
	305	61.2	1.00011E-001	-3.98119E-008	0.00000E+000	1.00000E-001	1.46623E-003	6	...........	-327.66
	306	61.4	9.01369E-002	-3.99558E-008	0.00000E+000	9.00000E-002	1.45950E-003	6	...........	-327.66
	307	61.6	7.99977E-002	-4.01814E-008	0.00000E+000	8.00000E-002	1.45845E-003	6	...........	-327.66
	308	61.8	7.00275E-002	-4.04030E-008	0.00000E+000	7.00000E-002	1.45168E-003	6	...........	-327.66
	309	62	6.00528E-002	-4.06021E-008	0.00000E+000	6.00000E-002	1.45678E-003	6	...........	-327.66
	310	62.2	5.00462E-002	-4.07798E-008	0.00000E+000	5.00000E-002	1.46388E-003	6	...........	-327.66
	311	62.4	4.00179E-002	-4.10311E-008	0.00000E+000	4.00000E-002	1.46415E-003	6	...........	-327.66
	312	62.6	3.00140E-002	-4.12514E-008	0.00000E+000	3.00000E-002	1.46382E-003	6	...........	-327.66
	313	62.8	2.00160E-002	-4.14301E-008	0.00000E+000	2.00000E-002	1.46081E-003	6	...........	-327.66
	314	63	1.00603E-002	-4.15897E-008	0.00000E+000	9.99999E-003	1.46110E-003	6	...........	-327.66
	315	63.2	-1.02553E-006	-4.18808E-008	0.00000E+000	-1.49012E-008	1.45468E-003	6	...........	-327.66
	316	63.4	-9.94159E-003	-4.20674E-008	0.00000E+000	-1.00000E-002	1.46998E-003	6	...........	-327.66
	317	63.6	-1.99453E-002	-4.23960E-008	0.00000E+000	-2.00000E-002	1.46685E-003	6	...........	-327.66
	318	63.8	-2.99475E-002	-4.24944E-008	0.00000E+000	-3.00000E-002	1.47068E-003	6	...........	-327.66
	319	64	-3.99314E-002	-4.28005E-008	0.00000E+000	-4.00000E-002	1.46938E-003	6	...........	-327.66
	320	64.2	-4.99922E-002	-4.30160E-008	0.00000E+000	-5.00000E-002	1.45880E-003	6	...........	-327.66
	321	64.4	-5.99744E-002	-4.33343E-008	0.00000E+000	-6.00000E-002	1.47419E-003	6	...........	-327.66
	322	64.6	-6.99307E-002	-4.34849E-008	0.00000E+000	-7.00000E-002	1.46051E-003	6	...........	-327.66
	323	64.8	-7.99998E-002	-4.37831E-008	0.00000E+000	-8.00000E-002	1.46116E-003	6	...........	-327.66
	324	65	-8.99414E-002	-4.40247E-008	0.00000E+000	-9.00000E-002	1.46090E-003	6	...........	-327.66
	325	65.2	-9.99727E-002	-4.43024E-008	0.00000E+000	-1.00000E-001	1.45606E-003	6	...........	-327.66
	326	65.4	-1.09952E-001	-4.45259E-008	0.00000E+000	-1.10000E-001	1.47188E-003	6	...........	-327.66
	327	65.6	-1.19971E-001	-4.48380E-008	0.00000E+000	-1.20000E-001	1.46662E-003	6	...........	-327.66
	328	65.8	-1.29998E-001	-4.50979E-008	0.00000E+000	-1.30000E-001	1.46917E-003	6	...........	-327.66
	329	66	-1.39947E-001	-4.54033E-008	0.00000E+000	-1.40000E-001	1.46518E-003	6	...........	-327.66
	330	66.2	-1.49986E-001	-4.56615E-008	0.00000E+000	-1.50000E-001	1.45386E-003	6	...........	-327.66
	331	66.4	-1.59999E-001	-4.59982E-008	0.00000E+000	-1.60000E-001	1.46065E-003	6	...........	-327.66
	332	66.6	-1.69955E-001	-4.62442E-008	0.00000E+000	-1.70000E-001	1.46637E-003	6	...........	-327.66
	333	66.8	-1.79990E-001	-4.66656E-008	0.00000E+000	-1.80000E-001	1.46001E-003	6	...........	-327.66
	334	67	-1.89849E-001	-4.69019E-008	0.00000E+000	-1.90000E-001	1.46538E-003	6	...........	-327.66
	335	67.2	-2.00003E-001	-4.73574E-008	0.00000E+000	-2.00000E-001	1.45836E-003	6	...........	-327.66
	336	67.4	-2.09970E-001	-4.76350E-008	0.00000E+000	-2.10000E-001	1.46196E-003	6	...........	-327.66
	337	67.6	-2.19885E-001	-4.80604E-008	0.00000E+000	-2.20000E-001	1.47263E-003	6	...........	-327.66
	338	67.8	-2.29950E-001	-4.84191E-008	0.00000E+000	-2.30000E-001	1.45745E-003	6	...........	-327.66
	339	68	-2.39988E-001	-4.89267E-008	0.00000E+000	-2.40000E-001	1.45753E-003	6	...........	-327.66
	340	68.2	-2.49961E-001	-4.93579E-008	0.00000E+000	-2.50000E-001	1.46118E-003	6	...........	-327.66
	341	68.4	-2.59973E-001	-4.98127E-008	0.00000E+000	-2.60000E-001	1.44603E-003	6	...........	-327.66
	342	68.6	-2.69898E-001	-5.02388E-008	0.00000E+000	-2.70000E-001	1.46093E-003	6	...........	-327.66
	343	68.8	-2.79998E-001	-5.07945E-008	0.00000E+000	-2.80000E-001	1.45468E-003	6	...........	-327.66
	344	69	-2.89946E-001	-5.13062E-008	0.00000E+000	-2.90000E-001	1.46760E-003	6	...........	-327.66
	345	69.2	-2.99958E-001	-5.19002E-008	0.00000E+000	-3.00000E-001	1.46753E-003	6	...........	-327.66
	346	69.4	-3.09958E-001	-5.24265E-008	0.00000E+000	-3.10000E-001	1.45886E-003	6	...........	-327.66
	347	69.6	-3.19989E-001	-5.30237E-008	0.00000E+000	-3.20000E-001	1.45183E-003	6	...........	-327.66
	348	69.8	-3.29984E-001	-5.36623E-008	0.00000E+000	-3.30000E-001	1.45468E-003	6	...........	-327.66
	349	70	-3.39987E-001	-5.43214E-008	0.00000E+000	-3.40000E-001	1.46135E-003	6	...........	-327.66
	350	70.2	-3.49945E-001	-5.48478E-008	0.00000E+000	-3.50000E-001	1.46048E-003	6	...........	-327.66
	351	70.4	-3.59986E-001	-5.55058E-008	0.00000E+000	-3.60000E-001	1.46632E-003	6	...........	-327.66
	352	70.6	-3.69856E-001	-5.60580E-008	0.00000E+000	-3.70000E-001	1.46425E-003	6	...........	-327.66
	353	70.8	-3.79973E-001	-5.66984E-008	0.00000E+000	-3.80000E-001	1.46313E-003	6	...........	-327.66
	354	71	-3.89939E-001	-5.71872E-008	0.00000E+000	-3.90000E-001	1.46583E-003	6	...........	-327.66
	355	71.2	-3.99961E-001	-5.77697E-008	0.00000E+000	-4.00000E-001	1.45606E-003	6	...........	-327.66
	356	71.4	-4.09962E-001	-5.83238E-008	0.00000E+000	-4.10000E-001	1.46450E-003	6	...........	-327.66
	357	71.6	-4.19951E-001	-5.88958E-008	0.00000E+000	-4.20000E-001	1.45209E-003	6	...........	-327.66
	358	71.8	-4.29926E-001	-5.94305E-008	0.00000E+000	-4.30000E-001	1.46193E-003	6	...........	-327.66
	359	72	-4.39980E-001	-5.99648E-008	0.00000E+000	-4.40000E-001	1.46588E-003	6	...........	-327.66
	360	72.2	-4.49888E-001	-6.04966E-008	0.00000E+000	-4.50000E-001	1.46890E-003	6	...........	-327.66
	361	72.4	-4.59953E-001	-6.10736E-008	0.00000E+000	-4.60000E-001	1.47227E-003	6	...........	-327.66
	362	72.6	-4.69805E-001	-6.16212E-008	0.00000E+000	-4.70000E-001	1.45880E-003	6	...........	-327.66
	363	72.8	-4.79926E-001	-6.22371E-008	0.00000E+000	-4.80000E-001	1.46128E-003	6	...........	-327.66
	364	73	-4.89929E-001	-6.26777E-008	0.00000E+000	-4.90000E-001	1.46615E-003	6	...........	-327.66
	365	73.2	-4.99853E-001	-6.33125E-008	0.00000E+000	-5.00000E-001	1.47499E-003	6	...........	-327.66
	366	73.4	-5.09884E-001	-6.37668E-008	0.00000E+000	-5.10000E-001	1.45565E-003	6	...........	-327.66
	367	73.6	-5.19977E-001	-6.44494E-008	0.00000E+000	-5.20000E-001	1.46325E-003	6	...........	-327.66
	368	73.8	-5.29909E-001	-6.49135E-008	0.00000E+000	-5.30000E-001	1.46992E-003	6	...........	-327.66
	369	74	-5.39945E-001	-6.55071E-008	0.00000E+000	-5.40000E-001	1.47404E-003	6	...........	-327.66
	370	74.2	-5.49806E-001	-6.59670E-008	0.00000E+000	-5.50000E-001	1.46388E-003	6	...........	-327.66
	371	74.4	-5.59950E-001	-6.64933E-008	0.00000E+000	-5.60000E-001	1.45536E-003	6	...........	-327.66
	372	74.6	-5.69850E-001	-6.70787E-008	0.00000E+000	-5.70000E-001	1.45826E-003	6	...........	-327.66
	373	74.8	-5.79844E-001	-6.75694E-008	0.00000E+000	-5.80000E-001	1.46155E-003	6	...........	-327.66
	374	75	-5.89890E-001	-6.79919E-008	0.00000E+000	-5.90000E-001	1.46455E-003	6	...........	-327.66
	375	75.2	-5.99899E-001	-6.85051E-008	0.00000E+000	-6.00000E-001	1.47469E-003	6	...........	-327.66
	376	75.4	-6.09899E-001	-6.89382E-008	0.00000E+000	-6.10000E-001	1.46810E-003	6	...........	-327.66
	377	75.6	-6.19942E-001	-6.93505E-008	0.00000E+000	-6.20000E-001	1.47457E-003	6	...........	-327.66
	378	75.8	-6.29818E-001	-6.95595E-008	0.00000E+000	-6.30000E-001	1.46448E-003	6	...........	-327.66
	379	76	-6.39944E-001	-7.00310E-008	0.00000E+000	-6.40000E-001	1.46967E-003	6	...........	-327.66
	380	76.2	-6.49770E-001	-7.02946E-008	0.00000E+000	-6.50000E-001	1.45516E-003	6	...........	-327.66
[...]
	700	140.2	-8.49856E-001	-3.56813E-008	0.00000E+000	-8.50000E-001	1.47522E-003	6	...........	-327.66
	701	140.4	-8.59813E-001	-3.36042E-008	0.00000E+000	-8.60000E-001	1.48366E-003	6	...........	-327.66
	702	140.6	-8.69866E-001	-3.16844E-008	0.00000E+000	-8.70000E-001	1.47599E-003	6	...........	-327.66
	703	140.8	-8.79932E-001	-2.98486E-008	0.00000E+000	-8.80000E-001	1.46408E-003	6	...........	-327.66
	704	141	-8.89872E-001	-2.82642E-008	0.00000E+000	-8.90000E-001	1.47804E-003	6	...........	-327.66
	705	141.2	-8.99942E-001	-2.68372E-008	0.00000E+000	-9.00000E-001	1.47080E-003	6	...........	-327.66
	706	141.4	-8.89942E-001	-2.19464E-008	0.00000E+000	-8.90000E-001	1.47333E-003	6	...........	-327.66
	707	141.6	-8.79972E-001	-1.92886E-008	0.00000E+000	-8.80000E-001	1.46613E-003	6	...........	-327.66
	708	141.8	-8.69981E-001	-1.72761E-008	0.00000E+000	-8.70000E-001	1.46748E-003	6	...........	-327.66
	709	142	-8.59867E-001	-1.54652E-008	0.00000E+000	-8.60000E-001	1.47702E-003	6	...........	-327.66
	710	142.2	-8.49963E-001	-1.37415E-008	0.00000E+000	-8.50000E-001	1.48274E-003	6	...........	-327.66
	711	142.4	-8.39984E-001	-1.20389E-008	0.00000E+000	-8.40000E-001	1.49066E-003	6	...........	-327.66
	712	142.6	-8.29830E-001	-1.02301E-008	0.00000E+000	-8.30000E-001	1.48019E-003	6	...........	-327.66
	713	142.8	-8.19979E-001	-8.35585E-009	0.00000E+000	-8.20000E-001	1.48215E-003	6	...........	-327.66
	714	143	-8.09881E-001	-6.15045E-009	0.00000E+000	-8.10000E-001	1.47252E-003	6	...........	-327.66
	715	143.2	-7.99967E-001	-3.77573E-009	0.00000E+000	-8.00000E-001	1.47167E-003	6	...........	-327.66
	716	143.4	-7.89906E-001	-9.76836E-010	0.00000E+000	-7.90000E-001	1.47375E-003	6	...........	-327.66
	717	143.6	-7.79966E-001	2.08239E-009	0.00000E+000	-7.80000E-001	1.48012E-003	6	...........	-327.66
	718	143.8	-7.69957E-001	5.56781E-009	0.00000E+000	-7.70000E-001	1.49324E-003	6	...........	-327.66
	719	144	-7.59968E-001	9.19610E-009	0.00000E+000	-7.60000E-001	1.47900E-003	6	...........	-327.66
	720	144.2	-7.49896E-001	1.31373E-008	0.00000E+000	-7.50000E-001	1.49466E-003	6	...........	-327.66
	721	144.4	-7.39979E-001	1.70124E-008	0.00000E+000	-7.40000E-001	1.47133E-003	6	...........	-327.66
	722	144.6	-7.29911E-001	2.08686E-008	0.00000E+000	-7.30000E-001	1.48704E-003	6	...........	-327.66
	723	144.8	-7.19977E-001	2.39646E-008	0.00000E+000	-7.20000E-001	1.46412E-003	6	...........	-327.66
	724	145	-7.09892E-001	2.62124E-008	0.00000E+000	-7.10000E-001	1.47695E-003	6	...........	-327.66
	725	145.2	-6.99951E-001	2.73599E-008	0.00000E+000	-7.00000E-001	1.48239E-003	6	...........	-327.66
	726	145.4	-6.89952E-001	2.78306E-008	0.00000E+000	-6.90000E-001	1.48841E-003	6	...........	-327.66
	727	145.6	-6.79908E-001	2.78860E-008	0.00000E+000	-6.80000E-001	1.48577E-003	6	...........	-327.66
	728	145.8	-6.69851E-001	2.78781E-008	0.00000E+000	-6.70000E-001	1.48307E-003	6	...........	-327.66
	729	146	-6.59957E-001	2.77245E-008	0.00000E+000	-6.60000E-001	1.47617E-003	6	...........	-327.66
	730	146.2	-6.49909E-001	2.78096E-008	0.00000E+000	-6.50000E-001	1.46243E-003	6	...........	-327.66
	731	146.4	-6.39988E-001	2.78657E-008	0.00000E+000	-6.40000E-001	1.47055E-003	6	...........	-327.66
	732	146.6	-6.29893E-001	2.80431E-008	0.00000E+000	-6.30000E-001	1.47392E-003	6	...........	-327.66
	733	146.8	-6.19981E-001	2.80736E-008	0.00000E+000	-6.20000E-001	1.48209E-003	6	...........	-327.66
	734	147	-6.09995E-001	2.82590E-008	0.00000E+000	-6.10000E-001	1.48501E-003	6	...........	-327.66
	735	147.2	-6.00001E-001	2.85641E-008	0.00000E+000	-6.00000E-001	1.47579E-003	6	...........	-327.66
	736	147.4	-5.89967E-001	2.88200E-008	0.00000E+000	-5.90000E-001	1.47624E-003	6	...........	-327.66
	737	147.6	-5.79922E-001	2.90384E-008	0.00000E+000	-5.80000E-001	1.47780E-003	6	...........	-327.66
	738	147.8	-5.69984E-001	2.92892E-008	0.00000E+000	-5.70000E-001	1.47477E-003	6	...........	-327.66
	739	148	-5.60015E-001	2.95997E-008	0.00000E+000	-5.60000E-001	1.46295E-003	6	...........	-327.66
	740	148.2	-5.49904E-001	2.99625E-008	0.00000E+000	-5.50000E-001	1.46835E-003	6	...........	-327.66
	741	148.4	-5.40003E-001	3.02227E-008	0.00000E+000	-5.40000E-001	1.47800E-003	6	...........	-327.66
	742	148.6	-5.29980E-001	3.06585E-008	0.00000E+000	-5.30000E-001	1.48245E-003	6	...........	-327.66
	743	148.8	-5.20032E-001	3.10014E-008	0.00000E+000	-5.20000E-001	1.47182E-003	6	...........	-327.66
	744	149	-5.09957E-001	3.15055E-008	0.00000E+000	-5.10000E-001	1.47767E-003	6	...........	-327.66
	745	149.2	-4.99917E-001	3.18915E-008	0.00000E+000	-5.00000E-001	1.46708E-003	6	...........	-327.66
	746	149.4	-4.89990E-001	3.24412E-008	0.00000E+000	-4.90000E-001	1.46757E-003	6	...........	-327.66
	747	149.6	-4.80000E-001	3.28605E-008	0.00000E+000	-4.80000E-001	1.47320E-003	6	...........	-327.66
	748	149.8	-4.69866E-001	3.34481E-008	0.00000E+000	-4.70000E-001	1.46995E-003	6	...........	-327.66
	749	150	-4.59995E-001	3.39768E-008	0.00000E+000	-4.60000E-001	1.47589E-003	6	...........	-327.66
	750	150.2	-4.49935E-001	3.46446E-008	0.00000E+000	-4.50000E-001	1.47524E-003	6	...........	-327.66
	751	150.4	-4.40005E-001	3.51665E-008	0.00000E+000	-4.40000E-001	1.47410E-003	6	...........	-327.66
	752	150.6	-4.29985E-001	3.57119E-008	0.00000E+000	-4.30000E-001	1.47880E-003	6	...........	-327.66
	753	150.8	-4.19992E-001	3.62426E-008	0.00000E+000	-4.20000E-001	1.47642E-003	6	...........	-327.66
	754	151	-4.09999E-001	3.68733E-008	0.00000E+000	-4.10000E-001	1.47465E-003	6	...........	-327.66
	755	151.2	-3.99991E-001	3.74262E-008	0.00000E+000	-4.00000E-001	1.46843E-003	6	...........	-327.66
	756	151.4	-3.89941E-001	3.80570E-008	0.00000E+000	-3.90000E-001	1.46633E-003	6	...........	-327.66
	757	151.6	-3.80007E-001	3.85512E-008	0.00000E+000	-3.80000E-001	1.48509E-003	6	...........	-327.66
	758	151.8	-3.69917E-001	3.92418E-008	0.00000E+000	-3.70000E-001	1.47475E-003	6	...........	-327.66
	759	152	-3.60014E-001	3.98271E-008	0.00000E+000	-3.60000E-001	1.47795E-003	6	...........	-327.66
	760	152.2	-3.49994E-001	4.04452E-008	0.00000E+000	-3.50000E-001	1.48069E-003	6	...........	-327.66
	761	152.4	-3.40012E-001	4.09438E-008	0.00000E+000	-3.40000E-001	1.46828E-003	6	...........	-327.66
	762	152.6	-3.30012E-001	4.15857E-008	0.00000E+000	-3.30000E-001	1.46830E-003	6	...........	-327.66
	763	152.8	-3.20014E-001	4.20796E-008	0.00000E+000	-3.20000E-001	1.47632E-003	6	...........	-327.66
	764	153	-3.09987E-001	4.26671E-008	0.00000E+000	-3.10000E-001	1.46847E-003	6	...........	-327.66
	765	153.2	-2.99997E-001	4.30745E-008	0.00000E+000	-3.00000E-001	1.48017E-003	6	...........	-327.66
	766	153.4	-2.89969E-001	4.36292E-008	0.00000E+000	-2.90000E-001	1.47724E-003	6	...........	-327.66
	767	153.6	-2.80020E-001	4.40861E-008	0.00000E+000	-2.80000E-001	1.48125E-003	6	...........	-327.66
	768	153.8	-2.69944E-001	4.45772E-008	0.00000E+000	-2.70000E-001	1.47882E-003	6	...........	-327.66
	769	154	-2.60006E-001	4.49239E-008	0.00000E+000	-2.60000E-001	1.47374E-003	6	...........	-327.66
	770	154.2	-2.50011E-001	4.53398E-008	0.00000E+000	-2.50000E-001	1.48235E-003	6	...........	-327.66
	771	154.4	-2.40024E-001	4.57618E-008	0.00000E+000	-2.40000E-001	1.47802E-003	6	...........	-327.66
	772	154.6	-2.29993E-001	4.62180E-008	0.00000E+000	-2.30000E-001	1.47689E-003	6	...........	-327.66
	773	154.8	-2.19929E-001	4.64854E-008	0.00000E+000	-2.20000E-001	1.47380E-003	6	...........	-327.66
	774	155	-2.10002E-001	4.68932E-008	0.00000E+000	-2.10000E-001	1.47885E-003	6	...........	-327.66
	775	155.2	-2.00054E-001	4.71152E-008	0.00000E+000	-2.00000E-001	1.48345E-003	6	...........	-327.66
	776	155.4	-1.89913E-001	4.74884E-008	0.00000E+000	-1.90000E-001	1.47699E-003	6	...........	-327.66
	777	155.6	-1.80015E-001	4.77385E-008	0.00000E+000	-1.80000E-001	1.47492E-003	6	...........	-327.66
	778	155.8	-1.70011E-001	4.80746E-008	0.00000E+000	-1.70000E-001	1.47002E-003	6	...........	-327.66
	779	156	-1.60031E-001	4.81794E-008	0.00000E+000	-1.60000E-001	1.46763E-003	6	...........	-327.66
	780	156.2	-1.50027E-001	4.84967E-008	0.00000E+000	-1.50000E-001	1.46977E-003	6	...........	-327.66
	781	156.4	-1.40000E-001	4.87257E-008	0.00000E+000	-1.40000E-001	1.47092E-003	6	...........	-327.66
	782	156.6	-1.30023E-001	4.90045E-008	0.00000E+000	-1.30000E-001	1.48454E-003	6	...........	-327.66
	783	156.8	-1.20016E-001	4.92623E-008	0.00000E+000	-1.20000E-001	1.47694E-003	6	...........	-327.66
	784	157	-1.09992E-001	4.93550E-008	0.00000E+000	-1.10000E-001	1.47735E-003	6	...........	-327.66
	785	157.2	-1.00016E-001	4.95194E-008	0.00000E+000	-1.00000E-001	1.46650E-003	6	...........	-327.66
	786	157.4	-8.99928E-002	4.99118E-008	0.00000E+000	-9.00000E-002	1.47489E-003	6	...........	-327.66
	787	157.6	-8.00206E-002	5.00900E-008	0.00000E+000	-8.00000E-002	1.46130E-003	6	...........	-327.66
	788	157.8	-6.99914E-002	5.01365E-008	0.00000E+000	-7.00000E-002	1.47272E-003	6	...........	-327.66
	789	158	-6.00163E-002	5.02036E-008	0.00000E+000	-6.00000E-002	1.47822E-003	6	...........	-327.66
	790	158.2	-5.00319E-002	5.04343E-008	0.00000E+000	-5.00000E-002	1.47769E-003	6	...........	-327.66
	791	158.4	-3.99719E-002	5.07923E-008	0.00000E+000	-4.00000E-002	1.48642E-003	6	...........	-327.66
	792	158.6	-2.99675E-002	5.10089E-008	0.00000E+000	-3.00000E-002	1.48367E-003	6	...........	-327.66
	793	158.8	-1.99993E-002	5.08176E-008	0.00000E+000	-2.00000E-002	1.48814E-003	6	...........	-327.66
	794	159	-1.00017E-002	5.10262E-008	0.00000E+000	-1.00000E-002	1.47704E-003	6	...........	-327.66
	795	159.2	-2.43500E-005	5.12462E-008	0.00000E+000	-1.49012E-008	1.47068E-003	6	...........	-327.66
	796	159.4	1.00239E-002	5.14434E-008	0.00000E+000	9.99999E-003	1.46840E-003	6	...........	-327.66
	797	159.6	1.99949E-002	5.14356E-008	0.00000E+000	2.00000E-002	1.47787E-003	6	...........	-327.66
	798	159.8	2.99971E-002	5.15040E-008	0.00000E+000	3.00000E-002	1.48722E-003	6	...........	-327.66
	799	160	3.97866E-002	5.17297E-008	0.00000E+000	4.00000E-002	1.49094E-003	6	...........	-327.66
	800	160.2	5.00397E-002	5.19058E-008	0.00000E+000	5.00000E-002	1.48581E-003	6	...........	-327.66
	801	160.4	6.00094E-002	5.19708E-008	0.00000E+000	6.00000E-002	1.47308E-003	6	...........	-327.66
	802	160.6	7.00068E-002	5.21302E-008	0.00000E+000	7.00000E-002	1.46873E-003	6	...........	-327.66
	803	160.8	7.99780E-002	5.23403E-008	0.00000E+000	8.00000E-002	1.46375E-003	6	...........	-327.66
	804	161	9.00929E-002	5.25611E-008	0.00000E+000	9.00000E-002	1.47090E-003	6	...........	-327.66
	805	161.2	9.99893E-002	5.26635E-008	0.00000E+000	1.00000E-001	1.47313E-003	6	...........	-327.66
	806	161.4	1.09996E-001	5.29687E-008	0.00000E+000	1.10000E-001	1.48037E-003	6	...........	-327.66
	807	161.6	1.19997E-001	5.31705E-008	0.00000E+000	1.20000E-001	1.48416E-003	6	...........	-327.66
	808	161.8	1.30022E-001	5.34891E-008	0.00000E+000	1.30000E-001	1.48182E-003	6	...........	-327.66
	809	162	1.40056E-001	5.36139E-008	0.00000E+000	1.40000E-001	1.47964E-003	6	...........	-327.66
	810	162.2	1.50013E-001	5.38835E-008	0.00000E+000	1.50000E-001	1.47005E-003	6	...........	-327.66
	811	162.4	1.59981E-001	5.41055E-008	0.00000E+000	1.60000E-001	1.46973E-003	6	...........	-327.66
	812	162.6	1.70073E-001	5.43871E-008	0.00000E+000	1.70000E-001	1.48461E-003	6	...........	-327.66
	813	162.8	1.79989E-001	5.45174E-008	0.00000E+000	1.80000E-001	1.47072E-003	6	...........	-327.66
	814	163	1.89999E-001	5.47289E-008	0.00000E+000	1.90000E-001	1.48832E-003	6	...........	-327.66
	815	163.2	1.99984E-001	5.49089E-008	0.00000E+000	2.00000E-001	1.47724E-003	6	...........	-327.66
	816	163.4	2.09979E-001	5.51876E-008	0.00000E+000	2.10000E-001	1.47505E-003	6	...........	-327.66
	817	163.6	2.19945E-001	5.52914E-008	0.00000E+000	2.20000E-001	1.46497E-003	6	...........	-327.66
	818	163.8	2.29993E-001	5.54892E-008	0.00000E+000	2.30000E-001	1.47490E-003	6	...........	-327.66
	819	164	2.39968E-001	5.57168E-008	0.00000E+000	2.40000E-001	1.46618E-003	6	...........	-327.66
	820	164.2	2.50013E-001	5.59448E-008	0.00000E+000	2.50000E-001	1.46962E-003	6	...........	-327.66
	821	164.4	2.59974E-001	5.60513E-008	0.00000E+000	2.60000E-001	1.47417E-003	6	...........	-327.66
	822	164.6	2.70007E-001	5.63641E-008	0.00000E+000	2.70000E-001	1.47554E-003	6	...........	-327.66
	823	164.8	2.79962E-001	5.65861E-008	0.00000E+000	2.80000E-001	1.48154E-003	6	...........	-327.66
	824	165	2.89970E-001	5.68892E-008	0.00000E+000	2.90000E-001	1.47450E-003	6	...........	-327.66
	825	165.2	2.99977E-001	5.70093E-008	0.00000E+000	3.00000E-001	1.47060E-003	6	...........	-327.66
	826	165.4	3.09980E-001	5.73017E-008	0.00000E+000	3.10000E-001	1.47222E-003	6	...........	-327.66
	827	165.6	3.19975E-001	5.75671E-008	0.00000E+000	3.20000E-001	1.47482E-003	6	...........	-327.66
	828	165.8	3.29993E-001	5.79122E-008	0.00000E+000	3.30000E-001	1.47824E-003	6	...........	-327.66
	829	166	3.39984E-001	5.81190E-008	0.00000E+000	3.40000E-001	1.47407E-003	6	...........	-327.66
	830	166.2	3.50013E-001	5.84075E-008	0.00000E+000	3.50000E-001	1.47362E-003	6	...........	-327.66
	831	166.4	3.59936E-001	5.87557E-008	0.00000E+000	3.60000E-001	1.47764E-003	6	...........	-327.66
	832	166.6	3.69978E-001	5.91260E-008	0.00000E+000	3.70000E-001	1.48000E-003	6	...........	-327.66
	833	166.8	3.79981E-001	5.93725E-008	0.00000E+000	3.80000E-001	1.48012E-003	6	...........	-327.66
	834	167	3.89970E-001	5.97248E-008	0.00000E+000	3.90000E-001	1.47399E-003	6	...........	-327.66
	835	167.2	3.99956E-001	6.00911E-008	0.00000E+000	4.00000E-001	1.47349E-003	6	...........	-327.66
	836	167.4	4.09967E-001	6.04692E-008	0.00000E+000	4.10000E-001	1.45730E-003	6	...........	-327.66
	837	167.6	4.19991E-001	6.08020E-008	0.00000E+000	4.20000E-001	1.47419E-003	6	...........	-327.66
	838	167.8	4.29985E-001	6.12096E-008	0.00000E+000	4.30000E-001	1.47954E-003	6	...........	-327.66
	839	168	4.39947E-001	6.16237E-008	0.00000E+000	4.40000E-001	1.48102E-003	6	...........	-327.66
	840	168.2	4.50014E-001	6.21010E-008	0.00000E+000	4.50000E-001	1.47350E-003	6	...........	-327.66
	841	168.4	4.59975E-001	6.25196E-008	0.00000E+000	4.60000E-001	1.47013E-003	6	...........	-327.66
	842	168.6	4.69950E-001	6.30087E-008	0.00000E+000	4.70000E-001	1.47238E-003	6	...........	-327.66
	843	168.8	4.79948E-001	6.34609E-008	0.00000E+000	4.80000E-001	1.47095E-003	6	...........	-327.66
	844	169	4.89958E-001	6.39915E-008	0.00000E+000	4.90000E-001	1.46165E-003	6	...........	-327.66
	845	169.2	4.99989E-001	6.45151E-008	0.00000E+000	5.00000E-001	1.47325E-003	6	...........	-327.66
	846	169.4	5.09968E-001	6.50696E-008	0.00000E+000	5.10000E-001	1.47780E-003	6	...........	-327.66
	847	169.6	5.19953E-001	6.56927E-008	0.00000E+000	5.20000E-001	1.47880E-003	6	...........	-327.66
	848	169.8	5.30002E-001	6.63585E-008	0.00000E+000	5.30000E-001	1.47872E-003	6	...........	-327.66
	849	170	5.39978E-001	6.70101E-008	0.00000E+000	5.40000E-001	1.47459E-003	6	...........	-327.66
	850	170.2	5.49974E-001	6.78110E-008	0.00000E+000	5.50000E-001	1.47370E-003	6	...........	-327.66
	851	170.4	5.59963E-001	6.86479E-008	0.00000E+000	5.60000E-001	1.48222E-003	6	...........	-327.66
	852	170.6	5.69971E-001	6.95990E-008	0.00000E+000	5.70000E-001	1.48004E-003	6	...........	-327.66
	853	170.8	5.79975E-001	7.06027E-008	0.00000E+000	5.80000E-001	1.48150E-003	6	...........	-327.66
	854	171	5.89962E-001	7.18030E-008	0.00000E+000	5.90000E-001	1.47912E-003	6	...........	-327.66
	855	171.2	5.99960E-001	7.30722E-008	0.00000E+000	6.00000E-001	1.47984E-003	6	...........	-327.66
CURVE4	TABLE
	Pt	T	Vf	Im	Vu	Sig	Ach	IERange	Over	Temp
	#	s	V vs. Ref.	A	V	V	V	#	bits	deg C
	856	171.4	5.89987E-001	-5.72579E-009	0.00000E+000	5.90000E-001	1.47510E-003	6	...........	-327.66
	857	171.6	5.79995E-001	-1.31520E-008	0.00000E+000	5.80000E-001	1.48272E-003	6	...........	-327.66
	858	171.8	5.69993E-001	-1.76164E-008	0.00000E+000	5.70000E-001	1.47499E-003	6	...........	-327.66
	859	172	5.59960E-001	-2.08622E-008	0.00000E+000	5.60000E-001	1.47130E-003	6	...........	-327.66
	860	172.2	5.49995E-001	-2.32144E-008	0.00000E+000	5.50000E-001	1.46510E-003	6	...........	-327.66
	861	172.4	5.39998E-001	-2.50884E-008	0.00000E+000	5.40000E-001	1.46540E-003	6	...........	-327.66
	862	172.6	5.30027E-001	-2.64660E-008	0.00000E+000	5.30000E-001	1.47972E-003	6	...........	-327.66
	863	172.8	5.19988E-001	-2.76444E-008	0.00000E+000	5.20000E-001	1.47900E-003	6	...........	-327.66
	864	173	5.09980E-001	-2.86245E-008	0.00000E+000	5.10000E-001	1.47142E-003	6	...........	-327.66
	865	173.2	5.00012E-001	-2.94655E-008	0.00000E+000	5.00000E-001	1.47480E-003	6	...........	-327.66
	866	173.4	4.89981E-001	-3.01737E-008	0.00000E+000	4.90000E-001	1.46590E-003	6	...........	-327.66
	867	173.6	4.79969E-001	-3.08208E-008	0.00000E+000	4.80000E-001	1.47080E-003	6	...........	-327.66
	868	173.8	4.69982E-001	-3.13632E-008	0.00000E+000	4.70000E-001	1.46600E-003	6	...........	-327.66
	869	174	4.59998E-001	-3.19061E-008	0.00000E+000	4.60000E-001	1.47305E-003	6	...........	-327.66
	870	174.2	4.50067E-001	-3.22783E-008	0.00000E+000	4.50000E-001	1.47520E-003	6	...........	-327.66
	871	174.4	4.39949E-001	-3.27357E-008	0.00000E+000	4.40000E-001	1.46437E-003	6	...........	-327.66
	872	174.6	4.29998E-001	-3.30779E-008	0.00000E+000	4.30000E-001	1.47709E-003	6	...........	-327.66
	873	174.8	4.20048E-001	-3.34128E-008	0.00000E+000	4.20000E-001	1.46558E-003	6	...........	-327.66
	874	175	4.09988E-001	-3.37085E-008	0.00000E+000	4.10000E-001	1.46091E-003	6	...........	-327.66
	875	175.2	3.99979E-001	-3.40658E-008	0.00000E+000	4.00000E-001	1.47474E-003	6	...........	-327.66
	876	175.4	3.89996E-001	-3.43489E-008	0.00000E+000	3.90000E-001	1.46620E-003	6	...........	-327.66
	877	175.6	3.80002E-001	-3.46365E-008	0.00000E+000	3.80000E-001	1.47252E-003	6	...........	-327.66
	878	175.8	3.70038E-001	-3.47997E-008	0.00000E+000	3.70000E-001	1.46988E-003	6	...........	-327.66
	879	176	3.59966E-001	-3.51047E-008	0.00000E+000	3.60000E-001	1.46860E-003	6	...........	-327.66
	880	176.2	3.50027E-001	-3.53447E-008	0.00000E+000	3.50000E-001	1.47005E-003	6	...........	-327.66
	881	176.4	3.40016E-001	-3.55797E-008	0.00000E+000	3.40000E-001	1.47764E-003	6	...........	-327.66
	882	176.6	3.30026E-001	-3.57283E-008	0.00000E+000	3.30000E-001	1.45691E-003	6	...........	-327.66
	883	176.8	3.19993E-001	-3.60324E-008	0.00000E+000	3.20000E-001	1.45925E-003	6	...........	-327.66
	884	177	3.09997E-001	-3.62336E-008	0.00000E+000	3.10000E-001	1.46223E-003	6	...........	-327.66
	885	177.2	3.00001E-001	-3.64884E-008	0.00000E+000	3.00000E-001	1.47113E-003	6	...........	-327.66
	886	177.4	2.90015E-001	-3.65840E-008	0.00000E+000	2.90000E-001	1.47153E-003	6	...........	-327.66
	887	177.6	2.79987E-001	-3.68531E-008	0.00000E+000	2.80000E-001	1.47005E-003	6	...........	-327.66
	888	177.8	2.70104E-001	-3.70257E-008	0.00000E+000	2.70000E-001	1.47007E-003	6	...........	-327.66
	889	178	2.60008E-001	-3.72811E-008	0.00000E+000	2.60000E-001	1.47232E-003	6	...........	-327.66
	890	178.2	2.50054E-001	-3.73108E-008	0.00000E+000	2.50000E-001	1.47390E-003	6	...........	-327.66
	891	178.4	2.40009E-001	-3.75492E-008	0.00000E+000	2.40000E-001	1.47252E-003	6	...........	-327.66
	892	178.6	2.30002E-001	-3.77202E-008	0.00000E+000	2.30000E-001	1.46028E-003	6	...........	-327.66
	893	178.8	2.20004E-001	-3.79464E-008	0.00000E+000	2.20000E-001	1.46820E-003	6	...........	-327.66
	894	179	2.10005E-001	-3.80359E-008	0.00000E+000	2.10000E-001	1.47140E-003	6	...........	-327.66
	895	179.2	2.00002E-001	-3.82077E-008	0.00000E+000	2.00000E-001	1.47799E-003	6	...........	-327.66
	896	179.4	1.90055E-001	-3.83758E-008	0.00000E+000	1.90000E-001	1.47330E-003	6	...........	-327.66
	897	179.6	1.80018E-001	-3.86106E-008	0.00000E+000	1.80000E-001	1.47023E-003	6	...........	-327.66
	898	179.8	1.70102E-001	-3.87059E-008	0.00000E+000	1.70000E-001	1.48524E-003	6	...........	-327.66
	899	180	1.60012E-001	-3.89171E-008	0.00000E+000	1.60000E-001	1.46040E-003	6	...........	-327.66
	900	180.2	1.50028E-001	-3.90578E-008	0.00000E+000	1.50000E-001	1.46635E-003	6	...........	-327.66