File: Test_Data_Files/20250424_G_CHI105_2mmAu_E000_PBSarg_CV50000.DTA
EXPLAIN
TAG	CV
TITLE	LABEL	Cyclic Voltammetry	Test &Identifier
DATE	LABEL	4/24/2025	Date
TIME	LABEL	17:03:24	Time
NOTES	NOTES	3	&Notes...

PSTAT	PSTAT	IFC1010-32247	Potentiostat
VINIT	POTEN	0.00000E+000	T	Initial &E (V)
VLIMIT1	POTEN	-6.00000E-001	F	Scan Limit &1 (V)
VLIMIT2	POTEN	8.00000E-001	F	Scan Limit &2 (V)
VFINAL	POTEN	0.00000E+000	T	Final &E (V)
SCANRATE	QUANT	4.99999E+004	&Scan Rate (mV/s)
STEPSIZE	QUANT	1.00000E+001	St&ep Size (mV)
CYCLES	IQUANT	3	C&ycles (#)
IMODE	SELECTOR	1	I/E Range &Mode
IRANGE	QUANT	1.00000E-001	&Max Current (mA)
AREA	QUANT	1.00000E+000	Electrode &Area (cm^2)
ELECTRODETYPE	SELECTOR	0	Electrode Type
STRIPPING	TOGGLE	F	Used for Stripping
CONDIT	TWOPARAM	F	1.50000E+001	0.00000E+000	Conditionin&g	Time(s)	E(V)
DELAY	TWOPARAM	T	1.50000E+001	0.00000E+000	Init. De&lay	Time(s)	Stab.(mV/s)
EQDELAY	QUANT	0.00000E+000	Equil. &Time (s)
IRCOMP	SELECTOR	0	IRCom&p
PFCOR	QUANT	5.00000E+001	PF Corr. (ohm)
SAMPLINGMODE	SELECTOR	2	Sampling &Mode
OCVCURVE	TABLE	58
	Pt	T	Vf	Vm	Ach	Over	Temp
	#	s	V vs. Ref.	V	V	bits	deg C
	0	0.258333	2.85712E-001	2.85712E-001	0.00000E+000	...........	1367.83
	1	0.516667	2.85711E-001	2.85653E-001	0.00000E+000	...........	1367.83
	2	0.775	2.85705E-001	2.85627E-001	0.00000E+000	...........	1367.91
	3	1.03333	2.85688E-001	2.85577E-001	0.00000E+000	...........	1367.91
	4	1.29167	2.85660E-001	2.85522E-001	0.00000E+000	...........	1367.91
	5	1.55	2.85622E-001	2.85477E-001	0.00000E+000	...........	1367.91
	6	1.80833	2.85578E-001	2.85449E-001	0.00000E+000	...........	1368.00
	7	2.06667	2.85532E-001	2.85411E-001	0.00000E+000	...........	1368.00
	8	2.325	2.85489E-001	2.85345E-001	0.00000E+000	...........	1368.00
	9	2.58333	2.85447E-001	2.85304E-001	0.00000E+000	...........	1368.00
	10	2.84167	2.85403E-001	2.85281E-001	0.00000E+000	...........	1368.00
	11	3.1	2.85358E-001	2.85214E-001	0.00000E+000	...........	1368.00
	12	3.35833	2.85314E-001	2.85171E-001	0.00000E+000	...........	1368.00
	13	3.61667	2.85269E-001	2.85123E-001	0.00000E+000	...........	1368.00
	14	3.875	2.85223E-001	2.85092E-001	0.00000E+000	...........	1368.00
	15	4.13333	2.85177E-001	2.85044E-001	0.00000E+000	...........	1368.00
	16	4.39167	2.85133E-001	2.85013E-001	0.00000E+000	...........	1368.00
	17	4.65	2.85091E-001	2.84948E-001	0.00000E+000	...........	1367.92
	18	4.90833	2.85049E-001	2.84921E-001	0.00000E+000	...........	1367.91
	19	5.16667	2.85006E-001	2.84865E-001	0.00000E+000	...........	1367.91
	20	5.425	2.84962E-001	2.84813E-001	0.00000E+000	...........	1367.91
	21	5.68333	2.84916E-001	2.84782E-001	0.00000E+000	...........	1367.91
	22	5.94167	2.84870E-001	2.84732E-001	0.00000E+000	...........	1367.91
	23	6.2	2.84825E-001	2.84713E-001	0.00000E+000	...........	1367.91
	24	6.45833	2.84783E-001	2.84657E-001	0.00000E+000	...........	1367.91
	25	6.71667	2.84743E-001	2.84610E-001	0.00000E+000	...........	1368.00
	26	6.975	2.84703E-001	2.84562E-001	0.00000E+000	...........	1368.00
	27	7.23333	2.84660E-001	2.84540E-001	0.00000E+000	...........	1368.00
	28	7.49167	2.84616E-001	2.84469E-001	0.00000E+000	...........	1368.00
	29	7.75	2.84573E-001	2.84450E-001	0.00000E+000	...........	1368.00
	30	8.00833	2.84530E-001	2.84400E-001	0.00000E+000	...........	1368.00
	31	8.26667	2.84487E-001	2.84347E-001	0.00000E+000	...........	1368.00
	32	8.525	2.84444E-001	2.84310E-001	0.00000E+000	...........	1368.00
	33	8.78333	2.84401E-001	2.84263E-001	0.00000E+000	...........	1368.00
	34	9.04167	2.84356E-001	2.84222E-001	0.00000E+000	...........	1368.00
	35	9.3	2.84312E-001	2.84179E-001	0.00000E+000	...........	1368.00
	36	9.5583	2.84268E-001	2.84132E-001	0.00000E+000	...........	1368.00
	37	9.8167	2.84224E-001	2.84089E-001	0.00000E+000	...........	1367.91
	38	10.075	2.84181E-001	2.84054E-001	0.00000E+000	...........	1367.91
	39	10.3333	2.84138E-001	2.84016E-001	0.00000E+000	...........	1367.91
	40	10.5917	2.84096E-001	2.83962E-001	0.00000E+000	...........	1367.91
	41	10.85	2.84055E-001	2.83901E-001	0.00000E+000	...........	1368.00
	42	11.1083	2.84011E-001	2.83881E-001	0.00000E+000	...........	1368.00
	43	11.3667	2.83965E-001	2.83837E-001	0.00000E+000	...........	1368.00
	44	11.625	2.83921E-001	2.83808E-001	0.00000E+000	...........	1367.78
	45	11.8833	2.83880E-001	2.83753E-001	0.00000E+000	...........	1367.48
	46	12.1417	2.83841E-001	2.83720E-001	0.00000E+000	...........	1367.48
	47	12.4	2.83802E-001	2.83676E-001	0.00000E+000	...........	1367.48
	48	12.6583	2.83762E-001	2.83622E-001	0.00000E+000	...........	1367.91
	49	12.9167	2.83719E-001	2.83580E-001	0.00000E+000	...........	1367.91
	50	13.175	2.83675E-001	2.83539E-001	0.00000E+000	...........	1367.91
	51	13.4333	2.83630E-001	2.83502E-001	0.00000E+000	...........	1367.91
	52	13.6917	2.83586E-001	2.83466E-001	0.00000E+000	...........	1367.91
	53	13.95	2.83545E-001	2.83430E-001	0.00000E+000	...........	1367.91
	54	14.2083	2.83506E-001	2.83383E-001	0.00000E+000	...........	1367.91
	55	14.4667	2.83467E-001	2.83332E-001	0.00000E+000	...........	1367.91
	56	14.725	2.83427E-001	2.83289E-001	0.00000E+000	...........	1368.00
	57	14.9833	2.83384E-001	2.83250E-001	0.00000E+000	...........	1368.00
EOC	QUANT	0.2833837	Open Circuit (V)
PSTATMODEL	IQUANT	64	Pstat Model
PSTATSECTION	LABEL	IFC1010-32247	Pstat Section
PSTATSERIALNO	LABEL	32247	Pstat Serial Number
CTRLMODE	IQUANT	1	Control Mode
ELECTROMETER	IQUANT	0	RE=0 or CS=1
IESTAB	IQUANT	2	I/E Stability
CASPEED	IQUANT	4	Control Amp Speed
CONVENTION	IQUANT	1	Current Convention
ICHRANGE	IQUANT	2	Ich Range
ICHRANGEMODE	TOGGLE	F	Ich Auto Range
ICHOFFSETENABLE	TOGGLE	F	Ich Offset Enable
ICHOFFSET	QUANT	0	Ich Offset (V)
ICHFILTER	IQUANT	2	Ich Filter
VCHRANGE	IQUANT	2	Vch Range
VCHRANGEMODE	TOGGLE	F	Vch Auto Range
VCHOFFSETENABLE	TOGGLE	F	Vch Offset Enable
VCHOFFSET	QUANT	0	Vch Offset (V)
VCHFILTER	IQUANT	2	Vch Filter
IERANGELOWERLIMIT	IQUANT	4	I/E Range Lower Limit
IERANGEMODE	TOGGLE	F	I/E AutoRange
IERANGE	IQUANT	9	I/E Range
ACHSELECT	IQUANT	0	Ach Select
ACHRANGE	IQUANT	2	Ach Range
ACHOFFSETENABLE	TOGGLE	F	Ach Offset Enable
ACHOFFSET	QUANT	0	Ach Offset (V)
ACHFILTER	IQUANT	1	Ach Filter
SENSECABLEID	IQUANT	14	Sense Cable ID
PWRCABLEID	IQUANT	14	Power Cable ID
DCCALDATE	LABEL	11/18/2024	DC Calibration Date
ACCALDATE	LABEL	4/18/2022	AC Calibration Date
FRAMEWORKVERSION	LABEL	7.10.3	Framework Version
INSTRUMENTVERSION	LABEL	4.91	Instrument Version
COMMVERSION	LABEL	3.10	Communications Version
CPUPLDVERSION	LABEL	2.22	CPU PLD Version
CTRLPLDVERSION	LABEL	0.00	CTRL PLD Version
PSTATPLDVERSION	LABEL	0.00	PSTAT PLD Version
CURVE1	TABLE
	Pt	T	Vf	Im	Vu	Sig	Ach	IERange	Over	Temp
	#	s	V vs. Ref.	A	V	V	V	#	bits	deg C
	0	0.0002	2.83419E-001	2.81055E-007	0.00000E+000	2.83376E-001	0.00000E+000	9	...........	1368.00
	1	0.0004	2.73426E-001	-6.45423E-005	0.00000E+000	2.73379E-001	0.00000E+000	9	...........	1368.00
	2	0.0006	2.63924E-001	-1.08708E-004	0.00000E+000	2.63382E-001	0.00000E+000	9	...........	1368.00
	3	0.0008	2.53851E-001	-1.43949E-004	0.00000E+000	2.53384E-001	0.00000E+000	9	...........	1368.00
	4	0.001	2.43868E-001	-1.70236E-004	0.00000E+000	2.43387E-001	0.00000E+000	9	...........	1368.00
	5	0.0012	2.33866E-001	-1.89966E-004	0.00000E+000	2.33389E-001	0.00000E+000	9	...........	1368.00
	6	0.0014	2.23863E-001	-2.05156E-004	0.00000E+000	2.23392E-001	0.00000E+000	9	...........	1368.00
	7	0.0016	2.13820E-001	-2.16681E-004	0.00000E+000	2.13394E-001	0.00000E+000	9	...........	1368.00
	8	0.0018	2.03828E-001	-2.25593E-004	0.00000E+000	2.03397E-001	0.00000E+000	9	...........	1368.00
	9	0.002	1.93835E-001	-2.32194E-004	0.00000E+000	1.93399E-001	0.00000E+000	9	...........	1368.00
	10	0.0022	1.83852E-001	-2.37338E-004	0.00000E+000	1.83402E-001	0.00000E+000	9	...........	1368.00
	11	0.0024	1.73830E-001	-2.41267E-004	0.00000E+000	1.73405E-001	0.00000E+000	9	...........	1368.00
	12	0.0026	1.63797E-001	-2.44403E-004	0.00000E+000	1.63407E-001	0.00000E+000	9	...........	1368.00
	13	0.0028	1.53764E-001	-2.47074E-004	0.00000E+000	1.53360E-001	0.00000E+000	9	...........	1368.00
	14	0.003	1.43792E-001	-2.48825E-004	0.00000E+000	1.43362E-001	0.00000E+000	9	...........	1368.00
	15	0.0032	1.33829E-001	-2.50216E-004	0.00000E+000	1.33365E-001	0.00000E+000	9	...........	1368.00
	16	0.0034	1.23806E-001	-2.51677E-004	0.00000E+000	1.23367E-001	0.00000E+000	9	...........	1368.00
	17	0.0036	1.13813E-001	-2.53272E-004	0.00000E+000	1.13370E-001	0.00000E+000	9	...........	1368.00
	18	0.0038	1.03811E-001	-2.54149E-004	0.00000E+000	1.03373E-001	0.00000E+000	9	...........	1368.00
	19	0.004	9.37981E-002	-2.53775E-004	0.00000E+000	9.33751E-002	0.00000E+000	9	...........	1368.00
	20	0.0042	8.37854E-002	-2.52385E-004	0.00000E+000	8.33776E-002	0.00000E+000	9	...........	1368.00
	21	0.0044	7.37927E-002	-2.50430E-004	0.00000E+000	7.33802E-002	0.00000E+000	9	...........	1368.00
	22	0.0046	6.37500E-002	-2.48228E-004	0.00000E+000	6.33827E-002	0.00000E+000	9	...........	1368.00
	23	0.0048	5.38073E-002	-2.46160E-004	0.00000E+000	5.33853E-002	0.00000E+000	9	...........	1368.00
	24	0.005	4.38046E-002	-2.44506E-004	0.00000E+000	4.33879E-002	0.00000E+000	9	...........	1368.00
	25	0.0052	3.38319E-002	-2.43215E-004	0.00000E+000	3.33904E-002	0.00000E+000	9	...........	1368.00
	26	0.0054	2.37592E-002	-2.42405E-004	0.00000E+000	2.33930E-002	0.00000E+000	9	...........	1368.00
	27	0.0056	1.37765E-002	-2.41901E-004	0.00000E+000	1.33955E-002	0.00000E+000	9	...........	1368.00
	28	0.0058	3.81383E-003	-2.41921E-004	0.00000E+000	3.39811E-003	0.00000E+000	9	...........	1368.00
	29	0.006	-6.21887E-003	-2.42304E-004	0.00000E+000	-6.59934E-003	0.00000E+000	9	...........	1368.00
	30	0.0062	-1.61716E-002	-2.43078E-004	0.00000E+000	-1.65968E-002	0.00000E+000	9	...........	1368.00
	31	0.0064	-2.62143E-002	-2.44276E-004	0.00000E+000	-2.65942E-002	0.00000E+000	9	...........	1368.00
	32	0.0066	-3.62070E-002	-2.45763E-004	0.00000E+000	-3.65917E-002	0.00000E+000	9	...........	1368.00
	33	0.0068	-4.62197E-002	-2.48138E-004	0.00000E+000	-4.66391E-002	0.00000E+000	9	...........	1368.00
	34	0.007	-5.62323E-002	-2.50520E-004	0.00000E+000	-5.66365E-002	0.00000E+000	9	...........	1368.00
	35	0.0072	-6.62550E-002	-2.53312E-004	0.00000E+000	-6.66340E-002	0.00000E+000	9	...........	1368.00
	36	0.0074	-7.62577E-002	-2.56657E-004	0.00000E+000	-7.66314E-002	0.00000E+000	9	...........	1368.00
	37	0.0076	-8.62304E-002	-2.60170E-004	0.00000E+000	-8.66289E-002	0.00000E+000	9	...........	1368.00
	38	0.0078	-9.62331E-002	-2.63755E-004	0.00000E+000	-9.66263E-002	0.00000E+000	9	...........	1368.00
	39	0.008	-1.06226E-001	-2.67188E-004	0.00000E+000	-1.06624E-001	0.00000E+000	9	...........	1368.00
	40	0.0082	-1.16259E-001	-2.70487E-004	0.00000E+000	-1.16621E-001	0.00000E+000	9	...........	1368.00
	41	0.0084	-1.26201E-001	-2.73612E-004	0.00000E+000	-1.26619E-001	0.00000E+000	9	...........	1368.00
	42	0.0086	-1.36204E-001	-2.76671E-004	0.00000E+000	-1.36616E-001	0.00000E+000	9	...........	1368.00
	43	0.0088	-1.46187E-001	-2.79536E-004	0.00000E+000	-1.46613E-001	0.00000E+000	9	...........	1368.00
	44	0.009	-1.56209E-001	-2.82234E-004	0.00000E+000	-1.56611E-001	0.00000E+000	9	...........	1368.00
	45	0.0092	-1.66242E-001	-2.84539E-004	0.00000E+000	-1.66608E-001	0.00000E+000	9	...........	1368.00
	46	0.0094	-1.76205E-001	-2.86694E-004	0.00000E+000	-1.76606E-001	0.00000E+000	9	...........	1368.00
	47	0.0096	-1.86207E-001	-2.88542E-004	0.00000E+000	-1.86603E-001	0.00000E+000	9	...........	1368.00
	48	0.0098	-1.96230E-001	-2.90303E-004	0.00000E+000	-1.96601E-001	0.00000E+000	9	...........	1368.00
	49	0.01	-2.06193E-001	-2.91928E-004	0.00000E+000	-2.06598E-001	0.00000E+000	9	...........	1368.00
	50	0.0102	-2.16225E-001	-2.93485E-004	0.00000E+000	-2.16596E-001	0.00000E+000	9	...........	1368.00
	51	0.0104	-2.26168E-001	-2.95080E-004	0.00000E+000	-2.26593E-001	0.00000E+000	9	...........	1368.00
	52	0.0106	-2.36211E-001	-2.96607E-004	0.00000E+000	-2.36590E-001	0.00000E+000	9	...........	1368.00
	53	0.0108	-2.46244E-001	-2.98555E-004	0.00000E+000	-2.46638E-001	0.00000E+000	9	...........	1368.00
	54	0.011	-2.56266E-001	-3.00360E-004	0.00000E+000	-2.56635E-001	0.00000E+000	9	...........	1368.00
	55	0.0112	-2.66269E-001	-3.02108E-004	0.00000E+000	-2.66633E-001	0.00000E+000	9	...........	1368.00
	56	0.0114	-2.76252E-001	-3.04189E-004	0.00000E+000	-2.76630E-001	0.00000E+000	9	...........	1368.00
	57	0.0116	-2.86234E-001	-3.06211E-004	0.00000E+000	-2.86628E-001	0.00000E+000	9	...........	1368.00
	58	0.0118	-2.96247E-001	-3.08559E-004	0.00000E+000	-2.96625E-001	0.00000E+000	9	...........	1368.00
	59	0.012	-3.06260E-001	-3.10844E-004	0.00000E+000	-3.06623E-001	0.00000E+000	9	...........	1368.00
	60	0.0122	-3.16232E-001	-3.12838E-004	0.00000E+000	-3.16620E-001	0.00000E+000	9	...........	1368.00
	61	0.0124	-3.26225E-001	-3.14860E-004	0.00000E+000	-3.26617E-001	0.00000E+000	9	...........	1368.00
	62	0.0126	-3.36248E-001	-3.16691E-004	0.00000E+000	-3.36615E-001	0.00000E+000	9	...........	1368.00
	63	0.0128	-3.46230E-001	-3.18058E-004	0.00000E+000	-3.46612E-001	0.00000E+000	9	...........	1368.00
	64	0.013	-3.56183E-001	-3.19086E-004	0.00000E+000	-3.56610E-001	0.00000E+000	9	...........	1368.00
	65	0.0132	-3.66196E-001	-3.19633E-004	0.00000E+000	-3.66607E-001	0.00000E+000	9	...........	1368.00
	66	0.0134	-3.76219E-001	-3.19710E-004	0.00000E+000	-3.76605E-001	0.00000E+000	9	...........	1368.00
	67	0.0136	-3.86191E-001	-3.19199E-004	0.00000E+000	-3.86602E-001	0.00000E+000	9	...........	1368.00
	68	0.0138	-3.96204E-001	-3.18249E-004	0.00000E+000	-3.96600E-001	0.00000E+000	9	...........	1368.00
	69	0.014	-4.06207E-001	-3.16734E-004	0.00000E+000	-4.06597E-001	0.00000E+000	9	...........	1368.00
	70	0.0142	-4.16229E-001	-3.14723E-004	0.00000E+000	-4.16594E-001	0.00000E+000	9	...........	1368.00
	71	0.0144	-4.26222E-001	-3.12208E-004	0.00000E+000	-4.26592E-001	0.00000E+000	9	...........	1368.00
	72	0.0146	-4.36305E-001	-3.09673E-004	0.00000E+000	-4.36639E-001	0.00000E+000	9	...........	1368.00
	73	0.0148	-4.46267E-001	-3.06327E-004	0.00000E+000	-4.46637E-001	0.00000E+000	9	...........	1368.00
	74	0.015	-4.56280E-001	-3.02675E-004	0.00000E+000	-4.56634E-001	0.00000E+000	9	...........	1368.00
	75	0.0152	-4.66293E-001	-2.98792E-004	0.00000E+000	-4.66632E-001	0.00000E+000	9	...........	1368.00
	76	0.0154	-4.76295E-001	-2.94499E-004	0.00000E+000	-4.76629E-001	0.00000E+000	9	...........	1368.00
	77	0.0156	-4.86258E-001	-2.89990E-004	0.00000E+000	-4.86626E-001	0.00000E+000	9	...........	1368.00
	78	0.0158	-4.96291E-001	-2.85146E-004	0.00000E+000	-4.96624E-001	0.00000E+000	9	...........	1368.00
	79	0.016	-5.06253E-001	-2.80096E-004	0.00000E+000	-5.06621E-001	0.00000E+000	9	...........	1368.00
	80	0.0162	-5.16276E-001	-2.74536E-004	0.00000E+000	-5.16619E-001	0.00000E+000	9	...........	1368.00
	81	0.0164	-5.26259E-001	-2.68892E-004	0.00000E+000	-5.26616E-001	0.00000E+000	9	...........	1368.00
	82	0.0166	-5.36272E-001	-2.62988E-004	0.00000E+000	-5.36614E-001	0.00000E+000	9	...........	1368.00
	83	0.0168	-5.46294E-001	-2.56767E-004	0.00000E+000	-5.46611E-001	0.00000E+000	9	...........	1368.00
	84	0.017	-5.56287E-001	-2.50573E-004	0.00000E+000	-5.56609E-001	0.00000E+000	9	...........	1368.00
	85	0.0172	-5.66280E-001	-2.44259E-004	0.00000E+000	-5.66606E-001	0.00000E+000	9	...........	1368.00
	86	0.0174	-5.76292E-001	-2.37898E-004	0.00000E+000	-5.76603E-001	0.00000E+000	9	...........	1368.00
	87	0.0176	-5.86215E-001	-2.31604E-004	0.00000E+000	-5.86601E-001	0.00000E+000	9	...........	1368.00
	88	0.0178	-5.96248E-001	-2.25447E-004	0.00000E+000	-5.96598E-001	0.00000E+000	9	...........	1368.00
	89	0.018	-5.87185E-001	-1.05893E-004	0.00000E+000	-5.86601E-001	0.00000E+000	9	...........	1368.00
	90	0.0182	-5.77053E-001	-3.67670E-005	0.00000E+000	-5.76603E-001	0.00000E+000	9	...........	1368.00
	91	0.0184	-5.67050E-001	5.91816E-006	0.00000E+000	-5.66606E-001	0.00000E+000	9	...........	1368.00
	92	0.0186	-5.57037E-001	3.47374E-005	0.00000E+000	-5.56609E-001	0.00000E+000	9	...........	1368.00
	93	0.0188	-5.47024E-001	5.54179E-005	0.00000E+000	-5.46611E-001	0.00000E+000	9	...........	1368.00
	94	0.019	-5.37032E-001	7.13052E-005	0.00000E+000	-5.36614E-001	0.00000E+000	9	...........	1368.00
	95	0.0192	-5.26969E-001	8.40304E-005	0.00000E+000	-5.26616E-001	0.00000E+000	9	...........	1368.00
	96	0.0194	-5.17026E-001	9.46741E-005	0.00000E+000	-5.16619E-001	0.00000E+000	9	...........	1368.00
	97	0.0196	-5.06974E-001	1.03917E-004	0.00000E+000	-5.06621E-001	0.00000E+000	9	...........	1368.00
	98	0.0198	-4.97001E-001	1.12329E-004	0.00000E+000	-4.96624E-001	0.00000E+000	9	...........	1368.00
	99	0.02	-4.87008E-001	1.19894E-004	0.00000E+000	-4.86626E-001	0.00000E+000	9	...........	1368.00
	100	0.0202	-4.77056E-001	1.27233E-004	0.00000E+000	-4.76629E-001	0.00000E+000	9	...........	1368.00
	101	0.0204	-4.67043E-001	1.34027E-004	0.00000E+000	-4.66632E-001	0.00000E+000	9	...........	1368.00
	102	0.0206	-4.57000E-001	1.40445E-004	0.00000E+000	-4.56634E-001	0.00000E+000	9	...........	1368.00
	103	0.0208	-4.46998E-001	1.46786E-004	0.00000E+000	-4.46637E-001	0.00000E+000	9	...........	1368.00
	104	0.021	-4.37015E-001	1.52923E-004	0.00000E+000	-4.36639E-001	0.00000E+000	9	...........	1368.00
	105	0.0212	-4.26972E-001	1.59127E-004	0.00000E+000	-4.26592E-001	0.00000E+000	9	...........	1368.00
	106	0.0214	-4.16949E-001	1.64764E-004	0.00000E+000	-4.16594E-001	0.00000E+000	9	...........	1368.00
	107	0.0216	-4.06967E-001	1.70285E-004	0.00000E+000	-4.06597E-001	0.00000E+000	9	...........	1368.00
	108	0.0218	-3.96954E-001	1.75632E-004	0.00000E+000	-3.96600E-001	0.00000E+000	9	...........	1368.00
	109	0.022	-3.86981E-001	1.80972E-004	0.00000E+000	-3.86602E-001	0.00000E+000	9	...........	1368.00
	110	0.0222	-3.77009E-001	1.86159E-004	0.00000E+000	-3.76605E-001	0.00000E+000	9	...........	1368.00
	111	0.0224	-3.67026E-001	1.91052E-004	0.00000E+000	-3.66607E-001	0.00000E+000	9	...........	1368.00
	112	0.0226	-3.56973E-001	1.95795E-004	0.00000E+000	-3.56610E-001	0.00000E+000	9	...........	1368.00
	113	0.0228	-3.47011E-001	2.00305E-004	0.00000E+000	-3.46612E-001	0.00000E+000	9	...........	1368.00
	114	0.023	-3.37008E-001	2.04611E-004	0.00000E+000	-3.36615E-001	0.00000E+000	9	...........	1368.00
	115	0.0232	-3.26995E-001	2.08794E-004	0.00000E+000	-3.26617E-001	0.00000E+000	9	...........	1368.00
	116	0.0234	-3.16983E-001	2.12803E-004	0.00000E+000	-3.16620E-001	0.00000E+000	9	...........	1368.00
	117	0.0236	-3.06970E-001	2.16369E-004	0.00000E+000	-3.06623E-001	0.00000E+000	9	...........	1368.00
	118	0.0238	-2.97017E-001	2.20108E-004	0.00000E+000	-2.96625E-001	0.00000E+000	9	...........	1368.00
	119	0.024	-2.86984E-001	2.23544E-004	0.00000E+000	-2.86628E-001	0.00000E+000	9	...........	1368.00
	120	0.0242	-2.77012E-001	2.26876E-004	0.00000E+000	-2.76630E-001	0.00000E+000	9	...........	1368.00
	121	0.0244	-2.67029E-001	2.29975E-004	0.00000E+000	-2.66633E-001	0.00000E+000	9	...........	1368.00
	122	0.0246	-2.57056E-001	2.32960E-004	0.00000E+000	-2.56635E-001	0.00000E+000	9	...........	1368.00
	123	0.0248	-2.46994E-001	2.35835E-004	0.00000E+000	-2.46638E-001	0.00000E+000	9	...........	1368.00
	124	0.025	-2.36981E-001	2.38787E-004	0.00000E+000	-2.36590E-001	0.00000E+000	9	...........	1368.00
	125	0.0252	-2.26968E-001	2.41229E-004	0.00000E+000	-2.26593E-001	0.00000E+000	9	...........	1368.00
	126	0.0254	-2.16946E-001	2.43497E-004	0.00000E+000	-2.16596E-001	0.00000E+000	9	...........	1368.00
	127	0.0256	-2.07003E-001	2.45585E-004	0.00000E+000	-2.06598E-001	0.00000E+000	9	...........	1368.00
	128	0.0258	-1.96990E-001	2.47580E-004	0.00000E+000	-1.96601E-001	0.00000E+000	9	...........	1368.00
	129	0.026	-1.86978E-001	2.49344E-004	0.00000E+000	-1.86603E-001	0.00000E+000	9	...........	1368.00
	130	0.0262	-1.76975E-001	2.50969E-004	0.00000E+000	-1.76606E-001	0.00000E+000	9	...........	1368.00
	131	0.0264	-1.66992E-001	2.52383E-004	0.00000E+000	-1.66608E-001	0.00000E+000	9	...........	1368.00
	132	0.0266	-1.56979E-001	2.53724E-004	0.00000E+000	-1.56611E-001	0.00000E+000	9	...........	1368.00
	133	0.0268	-1.46997E-001	2.54738E-004	0.00000E+000	-1.46613E-001	0.00000E+000	9	...........	1368.00
	134	0.027	-1.36994E-001	2.55682E-004	0.00000E+000	-1.36616E-001	0.00000E+000	9	...........	1368.00
	135	0.0272	-1.27001E-001	2.56322E-004	0.00000E+000	-1.26619E-001	0.00000E+000	9	...........	1368.00
	136	0.0274	-1.17009E-001	2.56863E-004	0.00000E+000	-1.16621E-001	0.00000E+000	9	...........	1368.00
	137	0.0276	-1.06996E-001	2.57096E-004	0.00000E+000	-1.06624E-001	0.00000E+000	9	...........	1368.00
	138	0.0278	-9.70233E-002	2.57183E-004	0.00000E+000	-9.66263E-002	0.00000E+000	9	...........	1368.00
	139	0.028	-8.70306E-002	2.57149E-004	0.00000E+000	-8.66289E-002	0.00000E+000	9	...........	1368.00
	140	0.0282	-7.70079E-002	2.57036E-004	0.00000E+000	-7.66314E-002	0.00000E+000	9	...........	1368.00
	141	0.0284	-6.70253E-002	2.56859E-004	0.00000E+000	-6.66340E-002	0.00000E+000	9	...........	1368.00
	142	0.0286	-5.70426E-002	2.56672E-004	0.00000E+000	-5.66365E-002	0.00000E+000	9	...........	1368.00
	143	0.0288	-4.69999E-002	2.56509E-004	0.00000E+000	-4.66391E-002	0.00000E+000	9	...........	1368.00
	144	0.029	-3.69872E-002	2.56746E-004	0.00000E+000	-3.65917E-002	0.00000E+000	9	...........	1368.00
	145	0.0292	-2.70045E-002	2.56833E-004	0.00000E+000	-2.65942E-002	0.00000E+000	9	...........	1368.00
	146	0.0294	-1.70018E-002	2.57219E-004	0.00000E+000	-1.65968E-002	0.00000E+000	9	...........	1368.00
	147	0.0296	-6.98908E-003	2.57880E-004	0.00000E+000	-6.59934E-003	0.00000E+000	9	...........	1368.00
	148	0.0298	3.02361E-003	2.58737E-004	0.00000E+000	3.39811E-003	0.00000E+000	9	...........	1368.00
	149	0.03	1.30763E-002	2.59731E-004	0.00000E+000	1.33955E-002	0.00000E+000	9	...........	1368.00
	150	0.0302	2.30390E-002	2.60638E-004	0.00000E+000	2.33930E-002	0.00000E+000	9	...........	1368.00
	151	0.0304	3.30217E-002	2.61199E-004	0.00000E+000	3.33904E-002	0.00000E+000	9	...........	1368.00
	152	0.0306	4.29944E-002	2.61316E-004	0.00000E+000	4.33879E-002	0.00000E+000	9	...........	1368.00
	153	0.0308	5.30171E-002	2.61235E-004	0.00000E+000	5.33853E-002	0.00000E+000	9	...........	1368.00
	154	0.031	6.29798E-002	2.61092E-004	0.00000E+000	6.33827E-002	0.00000E+000	9	...........	1368.00
	155	0.0312	7.29825E-002	2.60995E-004	0.00000E+000	7.33802E-002	0.00000E+000	9	...........	1368.00
	156	0.0314	8.30452E-002	2.61205E-004	0.00000E+000	8.33776E-002	0.00000E+000	9	...........	1368.00
	157	0.0316	9.30579E-002	2.61529E-004	0.00000E+000	9.33751E-002	0.00000E+000	9	...........	1368.00
	158	0.0318	1.03021E-001	2.62219E-004	0.00000E+000	1.03373E-001	0.00000E+000	9	...........	1368.00
	159	0.032	1.13003E-001	2.63097E-004	0.00000E+000	1.13370E-001	0.00000E+000	9	...........	1368.00
	160	0.0322	1.23006E-001	2.64398E-004	0.00000E+000	1.23367E-001	0.00000E+000	9	...........	1368.00
	161	0.0324	1.32999E-001	2.65895E-004	0.00000E+000	1.33365E-001	0.00000E+000	9	...........	1368.00
	162	0.0326	1.43031E-001	2.67820E-004	0.00000E+000	1.43362E-001	0.00000E+000	9	...........	1368.00
	163	0.0328	1.52994E-001	2.69865E-004	0.00000E+000	1.53360E-001	0.00000E+000	9	...........	1368.00
	164	0.033	1.63037E-001	2.72733E-004	0.00000E+000	1.63407E-001	0.00000E+000	9	...........	1368.00
	165	0.0332	1.73029E-001	2.75368E-004	0.00000E+000	1.73405E-001	0.00000E+000	9	...........	1368.00
	166	0.0334	1.83022E-001	2.78504E-004	0.00000E+000	1.83402E-001	0.00000E+000	9	...........	1368.00
	167	0.0336	1.93035E-001	2.81833E-004	0.00000E+000	1.93399E-001	0.00000E+000	9	...........	1368.00
	168	0.0338	2.03037E-001	2.85782E-004	0.00000E+000	2.03397E-001	0.00000E+000	9	...........	1368.00
	169	0.034	2.12980E-001	2.90008E-004	0.00000E+000	2.13394E-001	0.00000E+000	9	...........	1368.00
	170	0.0342	2.23013E-001	2.94881E-004	0.00000E+000	2.23392E-001	0.00000E+000	9	...........	1368.00
	171	0.0344	2.33036E-001	3.00188E-004	0.00000E+000	2.33389E-001	0.00000E+000	9	...........	1368.00
	172	0.0346	2.43048E-001	3.06032E-004	0.00000E+000	2.43387E-001	0.00000E+000	9	...........	1368.00
	173	0.0348	2.52991E-001	3.12353E-004	0.00000E+000	2.53384E-001	0.00000E+000	9	...........	1368.00
	174	0.035	2.62994E-001	3.18894E-004	0.00000E+000	2.63382E-001	0.00000E+000	9	...........	1368.00
	175	0.0352	2.72966E-001	3.25232E-004	0.00000E+000	2.73379E-001	0.00000E+000	9	...........	1368.00
	176	0.0354	2.83019E-001	3.31206E-004	0.00000E+000	2.83376E-001	0.00000E+000	9	...........	1368.00
	177	0.0356	2.93002E-001	3.36556E-004	0.00000E+000	2.93374E-001	0.00000E+000	9	...........	1368.00
	178	0.0358	3.02994E-001	3.41396E-004	0.00000E+000	3.03371E-001	0.00000E+000	9	...........	1368.00
	179	0.036	3.12997E-001	3.45565E-004	0.00000E+000	3.13369E-001	0.00000E+000	9	...........	1368.00
	180	0.0362	3.22960E-001	3.49551E-004	0.00000E+000	3.23366E-001	0.00000E+000	9	...........	1368.00
	181	0.0364	3.33033E-001	3.53090E-004	0.00000E+000	3.33364E-001	0.00000E+000	9	...........	1368.00
	182	0.0366	3.43025E-001	3.56272E-004	0.00000E+000	3.43361E-001	0.00000E+000	9	...........	1368.00
	183	0.0368	3.53048E-001	3.59198E-004	0.00000E+000	3.53409E-001	0.00000E+000	9	...........	1368.00
	184	0.037	3.63031E-001	3.61079E-004	0.00000E+000	3.63406E-001	0.00000E+000	9	...........	1368.00
	185	0.0372	3.72983E-001	3.62200E-004	0.00000E+000	3.73403E-001	0.00000E+000	9	...........	1368.00
	186	0.0374	3.83066E-001	3.63100E-004	0.00000E+000	3.83401E-001	0.00000E+000	9	...........	1368.00
	187	0.0376	3.93019E-001	3.63294E-004	0.00000E+000	3.93398E-001	0.00000E+000	9	...........	1368.00
	188	0.0378	4.03061E-001	3.62964E-004	0.00000E+000	4.03396E-001	0.00000E+000	9	...........	1368.00
	189	0.038	4.13024E-001	3.62150E-004	0.00000E+000	4.13393E-001	0.00000E+000	9	...........	1368.00
	190	0.0382	4.23027E-001	3.61019E-004	0.00000E+000	4.23391E-001	0.00000E+000	9	...........	1368.00
	191	0.0384	4.33009E-001	3.59411E-004	0.00000E+000	4.33388E-001	0.00000E+000	9	...........	1368.00
	192	0.0386	4.43042E-001	3.57820E-004	0.00000E+000	4.43385E-001	0.00000E+000	9	...........	1368.00
	193	0.0388	4.53005E-001	3.55709E-004	0.00000E+000	4.53383E-001	0.00000E+000	9	...........	1368.00
	194	0.039	4.63058E-001	3.53644E-004	0.00000E+000	4.63380E-001	0.00000E+000	9	...........	1368.00
	195	0.0392	4.73050E-001	3.51149E-004	0.00000E+000	4.73378E-001	0.00000E+000	9	...........	1368.00
	196	0.0394	4.83013E-001	3.48487E-004	0.00000E+000	4.83375E-001	0.00000E+000	9	...........	1368.00
	197	0.0396	4.93026E-001	3.45518E-004	0.00000E+000	4.93373E-001	0.00000E+000	9	...........	1368.00
	198	0.0398	5.03048E-001	3.42100E-004	0.00000E+000	5.03370E-001	0.00000E+000	9	...........	1368.00
	199	0.04	5.13031E-001	3.38214E-004	0.00000E+000	5.13368E-001	0.00000E+000	9	...........	1368.00
	200	0.0402	5.23064E-001	3.34064E-004	0.00000E+000	5.23365E-001	0.00000E+000	9	...........	1368.00
	201	0.0404	5.33026E-001	3.29685E-004	0.00000E+000	5.33362E-001	0.00000E+000	9	...........	1368.00
	202	0.0406	5.43049E-001	3.25092E-004	0.00000E+000	5.43360E-001	0.00000E+000	9	...........	1368.00
	203	0.0408	5.53112E-001	3.20709E-004	0.00000E+000	5.53407E-001	0.00000E+000	9	...........	1368.00
	204	0.041	5.63114E-001	3.15822E-004	0.00000E+000	5.63405E-001	0.00000E+000	9	...........	1368.00
	205	0.0412	5.73087E-001	3.10945E-004	0.00000E+000	5.73402E-001	0.00000E+000	9	...........	1368.00
	206	0.0414	5.83110E-001	3.05985E-004	0.00000E+000	5.83400E-001	0.00000E+000	9	...........	1368.00
	207	0.0416	5.93083E-001	3.01125E-004	0.00000E+000	5.93397E-001	0.00000E+000	9	...........	1368.00
	208	0.0418	6.03105E-001	2.96419E-004	0.00000E+000	6.03395E-001	0.00000E+000	9	...........	1368.00
	209	0.042	6.13098E-001	2.91769E-004	0.00000E+000	6.13392E-001	0.00000E+000	9	...........	1368.00
	210	0.0422	6.23071E-001	2.87496E-004	0.00000E+000	6.23389E-001	0.00000E+000	9	...........	1368.00
	211	0.0424	6.33073E-001	2.83350E-004	0.00000E+000	6.33387E-001	0.00000E+000	9	...........	1368.00
	212	0.0426	6.43106E-001	2.79484E-004	0.00000E+000	6.43384E-001	0.00000E+000	9	...........	1368.00
	213	0.0428	6.53069E-001	2.75842E-004	0.00000E+000	6.53382E-001	0.00000E+000	9	...........	1368.00
	214	0.043	6.63081E-001	2.72563E-004	0.00000E+000	6.63379E-001	0.00000E+000	9	...........	1368.00
	215	0.0432	6.73024E-001	2.69164E-004	0.00000E+000	6.73377E-001	0.00000E+000	9	...........	1368.00
	216	0.0434	6.83077E-001	2.66135E-004	0.00000E+000	6.83374E-001	0.00000E+000	9	...........	1368.00
	217	0.0436	6.93059E-001	2.62877E-004	0.00000E+000	6.93371E-001	0.00000E+000	9	...........	1368.00
	218	0.0438	7.03092E-001	2.59448E-004	0.00000E+000	7.03369E-001	0.00000E+000	9	...........	1368.00
	219	0.044	7.13055E-001	2.55799E-004	0.00000E+000	7.13366E-001	0.00000E+000	9	...........	1368.00
	220	0.0442	7.23068E-001	2.51833E-004	0.00000E+000	7.23364E-001	0.00000E+000	9	...........	1368.00
	221	0.0444	7.33080E-001	2.47897E-004	0.00000E+000	7.33361E-001	0.00000E+000	9	...........	1368.00
	222	0.0446	7.43133E-001	2.44064E-004	0.00000E+000	7.43359E-001	0.00000E+000	9	...........	1368.00
	223	0.0448	7.53076E-001	2.40398E-004	0.00000E+000	7.53406E-001	0.00000E+000	9	...........	1368.00
	224	0.045	7.63128E-001	2.36889E-004	0.00000E+000	7.63404E-001	0.00000E+000	9	...........	1368.00
	225	0.0452	7.73091E-001	2.33524E-004	0.00000E+000	7.73401E-001	0.00000E+000	9	...........	1368.00
	226	0.0454	7.83114E-001	2.30578E-004	0.00000E+000	7.83398E-001	0.00000E+000	9	...........	1368.00
	227	0.0456	7.93156E-001	2.28093E-004	0.00000E+000	7.93396E-001	0.00000E+000	9	...........	1368.00
	228	0.0458	8.03149E-001	2.26215E-004	0.00000E+000	8.03393E-001	0.00000E+000	9	...........	1368.00
CURVE2	TABLE
	Pt	T	Vf	Im	Vu	Sig	Ach	IERange	Over	Temp
	#	s	V vs. Ref.	A	V	V	V	#	bits	deg C
	229	0.046	7.90816E-001	9.33833E-005	0.00000E+000	7.89997E-001	0.00000E+000	9	...........	1368.00
	230	0.0462	7.80523E-001	3.24125E-005	0.00000E+000	7.79999E-001	0.00000E+000	9	...........	1368.00
	231	0.0464	7.70530E-001	-8.02450E-006	0.00000E+000	7.70002E-001	0.00000E+000	9	...........	1368.00
	232	0.0466	7.60458E-001	-3.67137E-005	0.00000E+000	7.60004E-001	0.00000E+000	9	...........	1368.00
	233	0.0468	7.50465E-001	-5.79312E-005	0.00000E+000	7.50007E-001	0.00000E+000	9	...........	1368.00
	234	0.047	7.40442E-001	-7.44689E-005	0.00000E+000	7.40010E-001	0.00000E+000	9	...........	1368.00
	235	0.0472	7.30480E-001	-8.77478E-005	0.00000E+000	7.30012E-001	0.00000E+000	9	...........	1368.00
	236	0.0474	7.20457E-001	-9.90653E-005	0.00000E+000	7.20015E-001	0.00000E+000	9	...........	1368.00
	237	0.0476	7.10464E-001	-1.08912E-004	0.00000E+000	7.10017E-001	0.00000E+000	9	...........	1368.00
	238	0.0478	7.00471E-001	-1.18228E-004	0.00000E+000	7.00020E-001	0.00000E+000	9	...........	1368.00
	239	0.048	6.90469E-001	-1.26784E-004	0.00000E+000	6.90022E-001	0.00000E+000	9	...........	1368.00
	240	0.0482	6.80496E-001	-1.35049E-004	0.00000E+000	6.80025E-001	0.00000E+000	9	...........	1368.00
	241	0.0484	6.70403E-001	-1.43395E-004	0.00000E+000	6.69977E-001	0.00000E+000	9	...........	1368.00
	242	0.0486	6.60441E-001	-1.51164E-004	0.00000E+000	6.59980E-001	0.00000E+000	9	...........	1368.00
	243	0.0488	6.50418E-001	-1.58989E-004	0.00000E+000	6.49983E-001	0.00000E+000	9	...........	1368.00
	244	0.049	6.40435E-001	-1.66854E-004	0.00000E+000	6.39985E-001	0.00000E+000	9	...........	1368.00
	245	0.0492	6.30453E-001	-1.74499E-004	0.00000E+000	6.29988E-001	0.00000E+000	9	...........	1368.00
	246	0.0494	6.20440E-001	-1.82128E-004	0.00000E+000	6.19990E-001	0.00000E+000	9	...........	1368.00
	247	0.0496	6.10417E-001	-1.89462E-004	0.00000E+000	6.09993E-001	0.00000E+000	9	...........	1368.00
	248	0.0498	6.00405E-001	-1.96601E-004	0.00000E+000	5.99995E-001	0.00000E+000	9	...........	1368.00
	249	0.05	5.90442E-001	-2.03115E-004	0.00000E+000	5.89998E-001	0.00000E+000	9	...........	1368.00
	250	0.0502	5.80479E-001	-2.09169E-004	0.00000E+000	5.80001E-001	0.00000E+000	9	...........	1368.00
	251	0.0504	5.70426E-001	-2.14619E-004	0.00000E+000	5.70003E-001	0.00000E+000	9	...........	1368.00
	252	0.0506	5.60434E-001	-2.19519E-004	0.00000E+000	5.60006E-001	0.00000E+000	9	...........	1368.00
	253	0.0508	5.50441E-001	-2.24046E-004	0.00000E+000	5.50008E-001	0.00000E+000	9	...........	1368.00
	254	0.051	5.40468E-001	-2.28302E-004	0.00000E+000	5.40011E-001	0.00000E+000	9	...........	1368.00
	255	0.0512	5.30456E-001	-2.32438E-004	0.00000E+000	5.30013E-001	0.00000E+000	9	...........	1368.00
	256	0.0514	5.20463E-001	-2.36401E-004	0.00000E+000	5.20016E-001	0.00000E+000	9	...........	1368.00
	257	0.0516	5.10430E-001	-2.40250E-004	0.00000E+000	5.10018E-001	0.00000E+000	9	...........	1368.00
	258	0.0518	5.00468E-001	-2.44062E-004	0.00000E+000	5.00021E-001	0.00000E+000	9	...........	1368.00
	259	0.052	4.90475E-001	-2.47982E-004	0.00000E+000	4.90024E-001	0.00000E+000	9	...........	1368.00
	260	0.0522	4.80412E-001	-2.52331E-004	0.00000E+000	4.79976E-001	0.00000E+000	9	...........	1368.00
	261	0.0524	4.70400E-001	-2.56284E-004	0.00000E+000	4.69979E-001	0.00000E+000	9	...........	1368.00
	262	0.0526	4.60417E-001	-2.60557E-004	0.00000E+000	4.59981E-001	0.00000E+000	9	...........	1368.00
	263	0.0528	4.50404E-001	-2.64903E-004	0.00000E+000	4.49984E-001	0.00000E+000	9	...........	1368.00
	264	0.053	4.40411E-001	-2.69496E-004	0.00000E+000	4.39986E-001	0.00000E+000	9	...........	1368.00
	265	0.0532	4.30399E-001	-2.74219E-004	0.00000E+000	4.29989E-001	0.00000E+000	9	...........	1368.00
	266	0.0534	4.20416E-001	-2.79126E-004	0.00000E+000	4.19991E-001	0.00000E+000	9	...........	1368.00
	267	0.0536	4.10433E-001	-2.84179E-004	0.00000E+000	4.09994E-001	0.00000E+000	9	...........	1368.00
	268	0.0538	4.00421E-001	-2.89413E-004	0.00000E+000	3.99997E-001	0.00000E+000	9	...........	1368.00
	269	0.054	3.90438E-001	-2.94569E-004	0.00000E+000	3.89999E-001	0.00000E+000	9	...........	1368.00
	270	0.0542	3.80405E-001	-2.99966E-004	0.00000E+000	3.80002E-001	0.00000E+000	9	...........	1368.00
	271	0.0544	3.70423E-001	-3.05180E-004	0.00000E+000	3.70004E-001	0.00000E+000	9	...........	1368.00
	272	0.0546	3.60460E-001	-3.10310E-004	0.00000E+000	3.60007E-001	0.00000E+000	9	...........	1368.00
	273	0.0548	3.50457E-001	-3.15507E-004	0.00000E+000	3.50009E-001	0.00000E+000	9	...........	1368.00
	274	0.055	3.40425E-001	-3.20390E-004	0.00000E+000	3.40012E-001	0.00000E+000	9	...........	1368.00
	275	0.0552	3.30482E-001	-3.24880E-004	0.00000E+000	3.30014E-001	0.00000E+000	9	...........	1368.00
	276	0.0554	3.20439E-001	-3.29062E-004	0.00000E+000	3.20017E-001	0.00000E+000	9	...........	1368.00
	277	0.0556	3.10436E-001	-3.32745E-004	0.00000E+000	3.10020E-001	0.00000E+000	9	...........	1368.00
	278	0.0558	3.00484E-001	-3.35830E-004	0.00000E+000	3.00022E-001	0.00000E+000	9	...........	1368.00
	279	0.056	2.90491E-001	-3.38639E-004	0.00000E+000	2.90025E-001	0.00000E+000	9	...........	1368.00
	280	0.0562	2.80428E-001	-3.41411E-004	0.00000E+000	2.79977E-001	0.00000E+000	9	...........	1368.00
	281	0.0564	2.70376E-001	-3.43379E-004	0.00000E+000	2.69980E-001	0.00000E+000	9	...........	1368.00
	282	0.0566	2.60383E-001	-3.45010E-004	0.00000E+000	2.59982E-001	0.00000E+000	9	...........	1368.00
	283	0.0568	2.50410E-001	-3.46251E-004	0.00000E+000	2.49985E-001	0.00000E+000	9	...........	1368.00
	284	0.057	2.40418E-001	-3.47188E-004	0.00000E+000	2.39988E-001	0.00000E+000	9	...........	1368.00
	285	0.0572	2.30405E-001	-3.47632E-004	0.00000E+000	2.29990E-001	0.00000E+000	9	...........	1368.00
	286	0.0574	2.20402E-001	-3.47488E-004	0.00000E+000	2.19993E-001	0.00000E+000	9	...........	1368.00
	287	0.0576	2.10409E-001	-3.46971E-004	0.00000E+000	2.09995E-001	0.00000E+000	9	...........	1368.00
	288	0.0578	2.00417E-001	-3.46024E-004	0.00000E+000	1.99998E-001	0.00000E+000	9	...........	1368.00
	289	0.058	1.90414E-001	-3.44610E-004	0.00000E+000	1.90000E-001	0.00000E+000	9	...........	1368.00
	290	0.0582	1.80391E-001	-3.42918E-004	0.00000E+000	1.80003E-001	0.00000E+000	9	...........	1368.00
	291	0.0584	1.70449E-001	-3.40980E-004	0.00000E+000	1.70005E-001	0.00000E+000	9	...........	1368.00
	292	0.0586	1.60386E-001	-3.38889E-004	0.00000E+000	1.60008E-001	0.00000E+000	9	...........	1368.00
	293	0.0588	1.50443E-001	-3.36354E-004	0.00000E+000	1.50011E-001	0.00000E+000	9	...........	1368.00
	294	0.059	1.40371E-001	-3.33132E-004	0.00000E+000	1.40013E-001	0.00000E+000	9	...........	1368.00
	295	0.0592	1.30408E-001	-3.28799E-004	0.00000E+000	1.30016E-001	0.00000E+000	9	...........	1368.00
	296	0.0594	1.20425E-001	-3.23452E-004	0.00000E+000	1.20018E-001	0.00000E+000	9	...........	1368.00
	297	0.0596	1.10393E-001	-3.17121E-004	0.00000E+000	1.10021E-001	0.00000E+000	9	...........	1368.00
	298	0.0598	1.00430E-001	-3.10193E-004	0.00000E+000	1.00023E-001	0.00000E+000	9	...........	1368.00
	299	0.06	9.03871E-002	-3.03339E-004	0.00000E+000	9.00259E-002	0.00000E+000	9	...........	1368.00
	300	0.0602	8.03444E-002	-2.96768E-004	0.00000E+000	7.99785E-002	0.00000E+000	9	...........	1368.00
	301	0.0604	7.03117E-002	-2.90293E-004	0.00000E+000	6.99811E-002	0.00000E+000	9	...........	1368.00
	302	0.0606	6.03090E-002	-2.84376E-004	0.00000E+000	5.99836E-002	0.00000E+000	9	...........	1368.00
	303	0.0608	5.03464E-002	-2.78922E-004	0.00000E+000	4.99862E-002	0.00000E+000	9	...........	1368.00
	304	0.061	4.03137E-002	-2.74149E-004	0.00000E+000	3.99887E-002	0.00000E+000	9	...........	1368.00
	305	0.0612	3.03610E-002	-2.69916E-004	0.00000E+000	2.99913E-002	0.00000E+000	9	...........	1368.00
	306	0.0614	2.03483E-002	-2.66434E-004	0.00000E+000	1.99939E-002	0.00000E+000	9	...........	1368.00
	307	0.0616	1.03356E-002	-2.63385E-004	0.00000E+000	9.99641E-003	0.00000E+000	9	...........	1368.00
	308	0.0618	3.62898E-004	-2.60940E-004	0.00000E+000	-1.02818E-006	0.00000E+000	9	...........	1368.00
	309	0.062	-9.63980E-003	-2.58886E-004	0.00000E+000	-9.99847E-003	0.00000E+000	9	...........	1368.00
	310	0.0622	-1.96325E-002	-2.57511E-004	0.00000E+000	-1.99959E-002	0.00000E+000	9	...........	1368.00
	311	0.0624	-2.96752E-002	-2.56561E-004	0.00000E+000	-2.99934E-002	0.00000E+000	9	...........	1368.00
	312	0.0626	-3.96379E-002	-2.56097E-004	0.00000E+000	-3.99908E-002	0.00000E+000	9	...........	1368.00
	313	0.0628	-4.96206E-002	-2.56014E-004	0.00000E+000	-4.99882E-002	0.00000E+000	9	...........	1368.00
	314	0.063	-5.96633E-002	-2.56874E-004	0.00000E+000	-5.99857E-002	0.00000E+000	9	...........	1368.00
	315	0.0632	-6.96260E-002	-2.57801E-004	0.00000E+000	-6.99831E-002	0.00000E+000	9	...........	1368.00
	316	0.0634	-7.96086E-002	-2.59229E-004	0.00000E+000	-7.99806E-002	0.00000E+000	9	...........	1368.00
	317	0.0636	-8.96113E-002	-2.60523E-004	0.00000E+000	-8.99780E-002	0.00000E+000	9	...........	1368.00
	318	0.0638	-9.96240E-002	-2.61707E-004	0.00000E+000	-9.99754E-002	0.00000E+000	9	...........	1368.00
	319	0.064	-1.09637E-001	-2.62888E-004	0.00000E+000	-1.10023E-001	0.00000E+000	9	...........	1368.00
	320	0.0642	-1.19649E-001	-2.63675E-004	0.00000E+000	-1.20020E-001	0.00000E+000	9	...........	1368.00
	321	0.0644	-1.29672E-001	-2.64469E-004	0.00000E+000	-1.30018E-001	0.00000E+000	9	...........	1368.00
	322	0.0646	-1.39675E-001	-2.65427E-004	0.00000E+000	-1.40015E-001	0.00000E+000	9	...........	1368.00
	323	0.0648	-1.49658E-001	-2.66404E-004	0.00000E+000	-1.50013E-001	0.00000E+000	9	...........	1368.00
	324	0.065	-1.59660E-001	-2.67708E-004	0.00000E+000	-1.60010E-001	0.00000E+000	9	...........	1368.00
	325	0.0652	-1.69633E-001	-2.69109E-004	0.00000E+000	-1.70007E-001	0.00000E+000	9	...........	1368.00
	326	0.0654	-1.79686E-001	-2.70583E-004	0.00000E+000	-1.80005E-001	0.00000E+000	9	...........	1368.00
	327	0.0656	-1.89658E-001	-2.72094E-004	0.00000E+000	-1.90002E-001	0.00000E+000	9	...........	1368.00
	328	0.0658	-1.99671E-001	-2.73852E-004	0.00000E+000	-2.00000E-001	0.00000E+000	9	...........	1368.00
	329	0.066	-2.09664E-001	-2.75680E-004	0.00000E+000	-2.09997E-001	0.00000E+000	9	...........	1368.00
	330	0.0662	-2.19646E-001	-2.77528E-004	0.00000E+000	-2.19995E-001	0.00000E+000	9	...........	1368.00
	331	0.0664	-2.29649E-001	-2.79586E-004	0.00000E+000	-2.29992E-001	0.00000E+000	9	...........	1368.00
	332	0.0666	-2.39622E-001	-2.81721E-004	0.00000E+000	-2.39990E-001	0.00000E+000	9	...........	1368.00
[...]
	642	0.1286	-5.39672E-001	-2.26884E-004	0.00000E+000	-5.40013E-001	0.00000E+000	9	...........	1368.00
	643	0.1288	-5.49685E-001	-2.20120E-004	0.00000E+000	-5.50010E-001	0.00000E+000	9	...........	1368.00
	644	0.129	-5.59698E-001	-2.13512E-004	0.00000E+000	-5.60008E-001	0.00000E+000	9	...........	1368.00
	645	0.1292	-5.69651E-001	-2.07128E-004	0.00000E+000	-5.70005E-001	0.00000E+000	9	...........	1368.00
	646	0.1294	-5.79723E-001	-2.00997E-004	0.00000E+000	-5.80003E-001	0.00000E+000	9	...........	1368.00
	647	0.1296	-5.89676E-001	-1.95050E-004	0.00000E+000	-5.90000E-001	0.00000E+000	9	...........	1368.00
	648	0.1298	-5.99659E-001	-1.89549E-004	0.00000E+000	-5.99997E-001	0.00000E+000	9	...........	1368.00
	649	0.13	-5.90596E-001	-7.23141E-005	0.00000E+000	-5.90000E-001	0.00000E+000	9	...........	1368.00
	650	0.1302	-5.80473E-001	-7.87440E-006	0.00000E+000	-5.80003E-001	0.00000E+000	9	...........	1368.00
	651	0.1304	-5.70441E-001	2.98408E-005	0.00000E+000	-5.70005E-001	0.00000E+000	9	...........	1368.00
	652	0.1306	-5.60428E-001	5.40837E-005	0.00000E+000	-5.60008E-001	0.00000E+000	9	...........	1368.00
	653	0.1308	-5.50405E-001	7.10750E-005	0.00000E+000	-5.50010E-001	0.00000E+000	9	...........	1368.00
	654	0.131	-5.40403E-001	8.39003E-005	0.00000E+000	-5.40013E-001	0.00000E+000	9	...........	1368.00
	655	0.1312	-5.30440E-001	9.42305E-005	0.00000E+000	-5.30015E-001	0.00000E+000	9	...........	1368.00
	656	0.1314	-5.20407E-001	1.02980E-004	0.00000E+000	-5.20018E-001	0.00000E+000	9	...........	1368.00
	657	0.1316	-5.10385E-001	1.10775E-004	0.00000E+000	-5.10020E-001	0.00000E+000	9	...........	1368.00
	658	0.1318	-5.00382E-001	1.18147E-004	0.00000E+000	-4.99973E-001	0.00000E+000	9	...........	1368.00
	659	0.132	-4.90379E-001	1.24781E-004	0.00000E+000	-4.89976E-001	0.00000E+000	9	...........	1368.00
	660	0.1322	-4.80377E-001	1.31075E-004	0.00000E+000	-4.79978E-001	0.00000E+000	9	...........	1368.00
	661	0.1324	-4.70414E-001	1.37099E-004	0.00000E+000	-4.69981E-001	0.00000E+000	9	...........	1368.00
	662	0.1326	-4.60351E-001	1.43050E-004	0.00000E+000	-4.59983E-001	0.00000E+000	9	...........	1368.00
	663	0.1328	-4.50408E-001	1.48860E-004	0.00000E+000	-4.49986E-001	0.00000E+000	9	...........	1368.00
	664	0.133	-4.40396E-001	1.54551E-004	0.00000E+000	-4.39988E-001	0.00000E+000	9	...........	1368.00
	665	0.1332	-4.30393E-001	1.60011E-004	0.00000E+000	-4.29991E-001	0.00000E+000	9	...........	1368.00
	666	0.1334	-4.20360E-001	1.65542E-004	0.00000E+000	-4.19994E-001	0.00000E+000	9	...........	1368.00
	667	0.1336	-4.10348E-001	1.70805E-004	0.00000E+000	-4.09996E-001	0.00000E+000	9	...........	1368.00
	668	0.1338	-4.00385E-001	1.76119E-004	0.00000E+000	-3.99999E-001	0.00000E+000	9	...........	1368.00
	669	0.134	-3.90392E-001	1.81182E-004	0.00000E+000	-3.90001E-001	0.00000E+000	9	...........	1368.00
	670	0.1342	-3.80380E-001	1.86202E-004	0.00000E+000	-3.80004E-001	0.00000E+000	9	...........	1368.00
	671	0.1344	-3.70407E-001	1.90962E-004	0.00000E+000	-3.70006E-001	0.00000E+000	9	...........	1368.00
	672	0.1346	-3.60414E-001	1.95642E-004	0.00000E+000	-3.60009E-001	0.00000E+000	9	...........	1368.00
	673	0.1348	-3.50412E-001	2.00055E-004	0.00000E+000	-3.50011E-001	0.00000E+000	9	...........	1368.00
	674	0.135	-3.40419E-001	2.04367E-004	0.00000E+000	-3.40014E-001	0.00000E+000	9	...........	1368.00
	675	0.1352	-3.30346E-001	2.08460E-004	0.00000E+000	-3.30017E-001	0.00000E+000	9	...........	1368.00
	676	0.1354	-3.20373E-001	2.12393E-004	0.00000E+000	-3.20019E-001	0.00000E+000	9	...........	1368.00
	677	0.1356	-3.10391E-001	2.16032E-004	0.00000E+000	-3.10022E-001	0.00000E+000	9	...........	1368.00
	678	0.1358	-3.00358E-001	2.19958E-004	0.00000E+000	-2.99974E-001	0.00000E+000	9	...........	1368.00
	679	0.136	-2.90375E-001	2.23223E-004	0.00000E+000	-2.89977E-001	0.00000E+000	9	...........	1368.00
	680	0.1362	-2.80353E-001	2.26512E-004	0.00000E+000	-2.79979E-001	0.00000E+000	9	...........	1368.00
	681	0.1364	-2.70350E-001	2.29511E-004	0.00000E+000	-2.69982E-001	0.00000E+000	9	...........	1368.00
	682	0.1366	-2.60377E-001	2.32500E-004	0.00000E+000	-2.59984E-001	0.00000E+000	9	...........	1368.00
	683	0.1368	-2.50385E-001	2.35372E-004	0.00000E+000	-2.49987E-001	0.00000E+000	9	...........	1368.00
	684	0.137	-2.40352E-001	2.38160E-004	0.00000E+000	-2.39990E-001	0.00000E+000	9	...........	1368.00
	685	0.1372	-2.30359E-001	2.40622E-004	0.00000E+000	-2.29992E-001	0.00000E+000	9	...........	1368.00
	686	0.1374	-2.20387E-001	2.43163E-004	0.00000E+000	-2.19995E-001	0.00000E+000	9	...........	1368.00
	687	0.1376	-2.10394E-001	2.45348E-004	0.00000E+000	-2.09997E-001	0.00000E+000	9	...........	1368.00
	688	0.1378	-2.00421E-001	2.47526E-004	0.00000E+000	-2.00000E-001	0.00000E+000	9	...........	1368.00
	689	0.138	-1.90348E-001	2.49448E-004	0.00000E+000	-1.90002E-001	0.00000E+000	9	...........	1368.00
	690	0.1382	-1.80396E-001	2.51179E-004	0.00000E+000	-1.80005E-001	0.00000E+000	9	...........	1368.00
	691	0.1384	-1.70403E-001	2.52787E-004	0.00000E+000	-1.70007E-001	0.00000E+000	9	...........	1368.00
	692	0.1386	-1.60390E-001	2.54251E-004	0.00000E+000	-1.60010E-001	0.00000E+000	9	...........	1368.00
	693	0.1388	-1.50398E-001	2.55435E-004	0.00000E+000	-1.50013E-001	0.00000E+000	9	...........	1368.00
	694	0.139	-1.40385E-001	2.56536E-004	0.00000E+000	-1.40015E-001	0.00000E+000	9	...........	1368.00
	695	0.1392	-1.30422E-001	2.57249E-004	0.00000E+000	-1.30018E-001	0.00000E+000	9	...........	1368.00
	696	0.1394	-1.20390E-001	2.58000E-004	0.00000E+000	-1.20020E-001	0.00000E+000	9	...........	1368.00
	697	0.1396	-1.10397E-001	2.58357E-004	0.00000E+000	-1.10023E-001	0.00000E+000	9	...........	1368.00
	698	0.1398	-1.00334E-001	2.58881E-004	0.00000E+000	-9.99754E-002	0.00000E+000	9	...........	1368.00
	699	0.14	-9.03715E-002	2.58871E-004	0.00000E+000	-8.99780E-002	0.00000E+000	9	...........	1368.00
	700	0.1402	-8.03688E-002	2.58754E-004	0.00000E+000	-7.99806E-002	0.00000E+000	9	...........	1368.00
	701	0.1404	-7.03662E-002	2.58534E-004	0.00000E+000	-6.99831E-002	0.00000E+000	9	...........	1368.00
	702	0.1406	-6.03334E-002	2.58427E-004	0.00000E+000	-5.99857E-002	0.00000E+000	9	...........	1368.00
	703	0.1408	-5.03408E-002	2.58107E-004	0.00000E+000	-4.99882E-002	0.00000E+000	9	...........	1368.00
	704	0.141	-4.03481E-002	2.58027E-004	0.00000E+000	-3.99908E-002	0.00000E+000	9	...........	1368.00
	705	0.1412	-3.03954E-002	2.58033E-004	0.00000E+000	-2.99934E-002	0.00000E+000	9	...........	1368.00
	706	0.1414	-2.03827E-002	2.58330E-004	0.00000E+000	-1.99959E-002	0.00000E+000	9	...........	1368.00
	707	0.1416	-1.03700E-002	2.58780E-004	0.00000E+000	-9.99847E-003	0.00000E+000	9	...........	1368.00
	708	0.1418	-3.27288E-004	2.59691E-004	0.00000E+000	-1.02818E-006	0.00000E+000	9	...........	1368.00
	709	0.142	9.59538E-003	2.60782E-004	0.00000E+000	9.99641E-003	0.00000E+000	9	...........	1368.00
	710	0.1422	1.96381E-002	2.61966E-004	0.00000E+000	1.99939E-002	0.00000E+000	9	...........	1368.00
	711	0.1424	2.96608E-002	2.62827E-004	0.00000E+000	2.99913E-002	0.00000E+000	9	...........	1368.00
	712	0.1426	3.96135E-002	2.63447E-004	0.00000E+000	3.99887E-002	0.00000E+000	9	...........	1368.00
	713	0.1428	4.96762E-002	2.63617E-004	0.00000E+000	4.99862E-002	0.00000E+000	9	...........	1368.00
	714	0.143	5.96489E-002	2.63831E-004	0.00000E+000	5.99836E-002	0.00000E+000	9	...........	1368.00
	715	0.1432	6.96516E-002	2.63761E-004	0.00000E+000	6.99811E-002	0.00000E+000	9	...........	1368.00
	716	0.1434	7.96442E-002	2.63977E-004	0.00000E+000	7.99785E-002	0.00000E+000	9	...........	1368.00
	717	0.1436	8.96569E-002	2.64518E-004	0.00000E+000	9.00259E-002	0.00000E+000	9	...........	1368.00
	718	0.1438	9.96396E-002	2.65051E-004	0.00000E+000	1.00023E-001	0.00000E+000	9	...........	1368.00
	719	0.144	1.09652E-001	2.65899E-004	0.00000E+000	1.10021E-001	0.00000E+000	9	...........	1368.00
	720	0.1442	1.19645E-001	2.67079E-004	0.00000E+000	1.20018E-001	0.00000E+000	9	...........	1368.00
	721	0.1444	1.29678E-001	2.68487E-004	0.00000E+000	1.30016E-001	0.00000E+000	9	...........	1368.00
	722	0.1446	1.39630E-001	2.70115E-004	0.00000E+000	1.40013E-001	0.00000E+000	9	...........	1368.00
	723	0.1448	1.49673E-001	2.72116E-004	0.00000E+000	1.50011E-001	0.00000E+000	9	...........	1368.00
	724	0.145	1.59646E-001	2.74444E-004	0.00000E+000	1.60008E-001	0.00000E+000	9	...........	1368.00
	725	0.1452	1.69648E-001	2.77029E-004	0.00000E+000	1.70005E-001	0.00000E+000	9	...........	1368.00
	726	0.1454	1.79631E-001	2.79968E-004	0.00000E+000	1.80003E-001	0.00000E+000	9	...........	1368.00
	727	0.1456	1.89664E-001	2.83173E-004	0.00000E+000	1.90000E-001	0.00000E+000	9	...........	1368.00
	728	0.1458	1.99647E-001	2.86726E-004	0.00000E+000	1.99998E-001	0.00000E+000	9	...........	1368.00
	729	0.146	2.09589E-001	2.90802E-004	0.00000E+000	2.09995E-001	0.00000E+000	9	...........	1368.00
	730	0.1462	2.19612E-001	2.95398E-004	0.00000E+000	2.19993E-001	0.00000E+000	9	...........	1368.00
	731	0.1464	2.29605E-001	3.00445E-004	0.00000E+000	2.29990E-001	0.00000E+000	9	...........	1368.00
	732	0.1466	2.39667E-001	3.06296E-004	0.00000E+000	2.39988E-001	0.00000E+000	9	...........	1368.00
	733	0.1468	2.49630E-001	3.12740E-004	0.00000E+000	2.49985E-001	0.00000E+000	9	...........	1368.00
	734	0.147	2.59623E-001	3.19838E-004	0.00000E+000	2.59982E-001	0.00000E+000	9	...........	1368.00
	735	0.1472	2.69695E-001	3.27113E-004	0.00000E+000	2.69980E-001	0.00000E+000	9	...........	1368.00
	736	0.1474	2.79598E-001	3.34204E-004	0.00000E+000	2.79977E-001	0.00000E+000	9	...........	1368.00
	737	0.1476	2.89641E-001	3.41162E-004	0.00000E+000	2.90025E-001	0.00000E+000	9	...........	1368.00
	738	0.1478	2.99664E-001	3.46993E-004	0.00000E+000	3.00022E-001	0.00000E+000	9	...........	1368.00
	739	0.148	3.09676E-001	3.52090E-004	0.00000E+000	3.10020E-001	0.00000E+000	9	...........	1368.00
	740	0.1482	3.19669E-001	3.56653E-004	0.00000E+000	3.20017E-001	0.00000E+000	9	...........	1368.00
	741	0.1484	3.29632E-001	3.60782E-004	0.00000E+000	3.30014E-001	0.00000E+000	9	...........	1368.00
	742	0.1486	3.39644E-001	3.64484E-004	0.00000E+000	3.40012E-001	0.00000E+000	9	...........	1368.00
	743	0.1488	3.49597E-001	3.67547E-004	0.00000E+000	3.50009E-001	0.00000E+000	9	...........	1368.00
	744	0.149	3.59670E-001	3.70275E-004	0.00000E+000	3.60007E-001	0.00000E+000	9	...........	1368.00
	745	0.1492	3.69662E-001	3.72193E-004	0.00000E+000	3.70004E-001	0.00000E+000	9	...........	1368.00
	746	0.1494	3.79625E-001	3.73671E-004	0.00000E+000	3.80002E-001	0.00000E+000	9	...........	1368.00
	747	0.1496	3.89628E-001	3.74334E-004	0.00000E+000	3.89999E-001	0.00000E+000	9	...........	1368.00
	748	0.1498	3.99680E-001	3.74631E-004	0.00000E+000	3.99997E-001	0.00000E+000	9	...........	1368.00
	749	0.15	4.09663E-001	3.74221E-004	0.00000E+000	4.09994E-001	0.00000E+000	9	...........	1368.00
	750	0.1502	4.19686E-001	3.73567E-004	0.00000E+000	4.19991E-001	0.00000E+000	9	...........	1368.00
	751	0.1504	4.29669E-001	3.72413E-004	0.00000E+000	4.29989E-001	0.00000E+000	9	...........	1368.00
	752	0.1506	4.39681E-001	3.70976E-004	0.00000E+000	4.39986E-001	0.00000E+000	9	...........	1368.00
	753	0.1508	4.49644E-001	3.69088E-004	0.00000E+000	4.49984E-001	0.00000E+000	9	...........	1368.00
	754	0.151	4.59627E-001	3.67003E-004	0.00000E+000	4.59981E-001	0.00000E+000	9	...........	1368.00
	755	0.1512	4.69619E-001	3.64778E-004	0.00000E+000	4.69979E-001	0.00000E+000	9	...........	1368.00
	756	0.1514	4.79662E-001	3.62250E-004	0.00000E+000	4.79976E-001	0.00000E+000	9	...........	1368.00
	757	0.1516	4.89725E-001	3.59508E-004	0.00000E+000	4.90024E-001	0.00000E+000	9	...........	1368.00
	758	0.1518	4.99707E-001	3.56069E-004	0.00000E+000	5.00021E-001	0.00000E+000	9	...........	1368.00
	759	0.152	5.09680E-001	3.51973E-004	0.00000E+000	5.10018E-001	0.00000E+000	9	...........	1368.00
	760	0.1522	5.19703E-001	3.47610E-004	0.00000E+000	5.20016E-001	0.00000E+000	9	...........	1368.00
	761	0.1524	5.29735E-001	3.42823E-004	0.00000E+000	5.30013E-001	0.00000E+000	9	...........	1368.00
	762	0.1526	5.39748E-001	3.37747E-004	0.00000E+000	5.40011E-001	0.00000E+000	9	...........	1368.00
	763	0.1528	5.49711E-001	3.32230E-004	0.00000E+000	5.50008E-001	0.00000E+000	9	...........	1368.00
	764	0.153	5.59714E-001	3.26813E-004	0.00000E+000	5.60006E-001	0.00000E+000	9	...........	1368.00
	765	0.1532	5.69716E-001	3.21015E-004	0.00000E+000	5.70003E-001	0.00000E+000	9	...........	1368.00
	766	0.1534	5.79769E-001	3.15348E-004	0.00000E+000	5.80001E-001	0.00000E+000	9	...........	1368.00
	767	0.1536	5.89722E-001	3.09524E-004	0.00000E+000	5.89998E-001	0.00000E+000	9	...........	1368.00
	768	0.1538	5.99684E-001	3.03911E-004	0.00000E+000	5.99995E-001	0.00000E+000	9	...........	1368.00
	769	0.154	6.09727E-001	2.98304E-004	0.00000E+000	6.09993E-001	0.00000E+000	9	...........	1368.00
	770	0.1542	6.19730E-001	2.93047E-004	0.00000E+000	6.19990E-001	0.00000E+000	9	...........	1368.00
	771	0.1544	6.29722E-001	2.87910E-004	0.00000E+000	6.29988E-001	0.00000E+000	9	...........	1368.00
	772	0.1546	6.39695E-001	2.83123E-004	0.00000E+000	6.39985E-001	0.00000E+000	9	...........	1368.00
	773	0.1548	6.49688E-001	2.78637E-004	0.00000E+000	6.49983E-001	0.00000E+000	9	...........	1368.00
	774	0.155	6.59741E-001	2.74464E-004	0.00000E+000	6.59980E-001	0.00000E+000	9	...........	1368.00
	775	0.1552	6.69693E-001	2.70512E-004	0.00000E+000	6.69977E-001	0.00000E+000	9	...........	1368.00
	776	0.1554	6.79776E-001	2.66999E-004	0.00000E+000	6.80025E-001	0.00000E+000	9	...........	1368.00
	777	0.1556	6.89749E-001	2.63093E-004	0.00000E+000	6.90022E-001	0.00000E+000	9	...........	1368.00
	778	0.1558	6.99771E-001	2.59147E-004	0.00000E+000	7.00020E-001	0.00000E+000	9	...........	1368.00
	779	0.156	7.09734E-001	2.54935E-004	0.00000E+000	7.10017E-001	0.00000E+000	9	...........	1368.00
	780	0.1562	7.19787E-001	2.50595E-004	0.00000E+000	7.20015E-001	0.00000E+000	9	...........	1368.00
	781	0.1564	7.29769E-001	2.46172E-004	0.00000E+000	7.30012E-001	0.00000E+000	9	...........	1368.00
	782	0.1566	7.39752E-001	2.41809E-004	0.00000E+000	7.40010E-001	0.00000E+000	9	...........	1368.00
	783	0.1568	7.49745E-001	2.37613E-004	0.00000E+000	7.50007E-001	0.00000E+000	9	...........	1368.00
	784	0.157	7.59787E-001	2.33694E-004	0.00000E+000	7.60004E-001	0.00000E+000	9	...........	1368.00
	785	0.1572	7.69720E-001	2.30058E-004	0.00000E+000	7.70002E-001	0.00000E+000	9	...........	1368.00
	786	0.1574	7.79763E-001	2.26956E-004	0.00000E+000	7.79999E-001	0.00000E+000	9	...........	1368.00
	787	0.1576	7.89746E-001	2.24284E-004	0.00000E+000	7.89997E-001	0.00000E+000	9	...........	1368.00
	788	0.1578	7.99758E-001	2.22139E-004	0.00000E+000	7.99994E-001	0.00000E+000	9	...........	1368.00
CURVE4	TABLE
	Pt	T	Vf	Im	Vu	Sig	Ach	IERange	Over	Temp
	#	s	V vs. Ref.	A	V	V	V	#	bits	deg C
	789	0.158	7.90626E-001	1.08533E-004	0.00000E+000	7.89997E-001	0.00000E+000	9	...........	1368.00
	790	0.1582	7.80543E-001	4.06447E-005	0.00000E+000	7.79999E-001	0.00000E+000	9	...........	1368.00
	791	0.1584	7.70570E-001	-3.22129E-006	0.00000E+000	7.70002E-001	0.00000E+000	9	...........	1368.00
	792	0.1586	7.60498E-001	-3.36049E-005	0.00000E+000	7.60004E-001	0.00000E+000	9	...........	1368.00
	793	0.1588	7.50495E-001	-5.57831E-005	0.00000E+000	7.50007E-001	0.00000E+000	9	...........	1368.00
	794	0.159	7.40472E-001	-7.27478E-005	0.00000E+000	7.40010E-001	0.00000E+000	9	...........	1368.00
	795	0.1592	7.30530E-001	-8.64302E-005	0.00000E+000	7.30012E-001	0.00000E+000	9	...........	1368.00
	796	0.1594	7.20477E-001	-9.79646E-005	0.00000E+000	7.20015E-001	0.00000E+000	9	...........	1368.00
	797	0.1596	7.10484E-001	-1.08085E-004	0.00000E+000	7.10017E-001	0.00000E+000	9	...........	1368.00
	798	0.1598	7.00511E-001	-1.17378E-004	0.00000E+000	7.00020E-001	0.00000E+000	9	...........	1368.00
	799	0.16	6.90469E-001	-1.26187E-004	0.00000E+000	6.90022E-001	0.00000E+000	9	...........	1368.00
	800	0.1602	6.80446E-001	-1.34562E-004	0.00000E+000	6.80025E-001	0.00000E+000	9	...........	1368.00
	801	0.1604	6.70443E-001	-1.43008E-004	0.00000E+000	6.69977E-001	0.00000E+000	9	...........	1368.00
	802	0.1606	6.60451E-001	-1.51040E-004	0.00000E+000	6.59980E-001	0.00000E+000	9	...........	1368.00
	803	0.1608	6.50468E-001	-1.58992E-004	0.00000E+000	6.49983E-001	0.00000E+000	9	...........	1368.00
	804	0.161	6.40465E-001	-1.67101E-004	0.00000E+000	6.39985E-001	0.00000E+000	9	...........	1368.00
	805	0.1612	6.30453E-001	-1.74896E-004	0.00000E+000	6.29988E-001	0.00000E+000	9	...........	1368.00
	806	0.1614	6.20410E-001	-1.82731E-004	0.00000E+000	6.19990E-001	0.00000E+000	9	...........	1368.00
	807	0.1616	6.10447E-001	-1.90310E-004	0.00000E+000	6.09993E-001	0.00000E+000	9	...........	1368.00
	808	0.1618	6.00475E-001	-1.97538E-004	0.00000E+000	5.99995E-001	0.00000E+000	9	...........	1368.00
	809	0.162	5.90462E-001	-2.04226E-004	0.00000E+000	5.89998E-001	0.00000E+000	9	...........	1368.00
	810	0.1622	5.80499E-001	-2.10443E-004	0.00000E+000	5.80001E-001	0.00000E+000	9	...........	1368.00
	811	0.1624	5.70436E-001	-2.15987E-004	0.00000E+000	5.70003E-001	0.00000E+000	9	...........	1368.00
	812	0.1626	5.60444E-001	-2.21080E-004	0.00000E+000	5.60006E-001	0.00000E+000	9	...........	1368.00
	813	0.1628	5.50391E-001	-2.25863E-004	0.00000E+000	5.50008E-001	0.00000E+000	9	...........	1368.00
	814	0.163	5.40448E-001	-2.30173E-004	0.00000E+000	5.40011E-001	0.00000E+000	9	...........	1368.00
	815	0.1632	5.30496E-001	-2.34202E-004	0.00000E+000	5.30013E-001	0.00000E+000	9	...........	1368.00
	816	0.1634	5.20413E-001	-2.38665E-004	0.00000E+000	5.20016E-001	0.00000E+000	9	...........	1368.00
	817	0.1636	5.10460E-001	-2.42621E-004	0.00000E+000	5.10018E-001	0.00000E+000	9	...........	1368.00
	818	0.1638	5.00468E-001	-2.46704E-004	0.00000E+000	5.00021E-001	0.00000E+000	9	...........	1368.00
	819	0.164	4.90475E-001	-2.50910E-004	0.00000E+000	4.90024E-001	0.00000E+000	9	...........	1368.00
	820	0.1642	4.80412E-001	-2.55507E-004	0.00000E+000	4.79976E-001	0.00000E+000	9	...........	1368.00
	821	0.1644	4.70440E-001	-2.59950E-004	0.00000E+000	4.69979E-001	0.00000E+000	9	...........	1368.00
	822	0.1646	4.60427E-001	-2.64609E-004	0.00000E+000	4.59981E-001	0.00000E+000	9	...........	1368.00
	823	0.1648	4.50454E-001	-2.69329E-004	0.00000E+000	4.49984E-001	0.00000E+000	9	...........	1368.00
	824	0.165	4.40441E-001	-2.74433E-004	0.00000E+000	4.39986E-001	0.00000E+000	9	...........	1368.00
	825	0.1652	4.30439E-001	-2.79509E-004	0.00000E+000	4.29989E-001	0.00000E+000	9	...........	1368.00
	826	0.1654	4.20446E-001	-2.84966E-004	0.00000E+000	4.19991E-001	0.00000E+000	9	...........	1368.00
	827	0.1656	4.10453E-001	-2.90547E-004	0.00000E+000	4.09994E-001	0.00000E+000	9	...........	1368.00
	828	0.1658	4.00441E-001	-2.96224E-004	0.00000E+000	3.99997E-001	0.00000E+000	9	...........	1368.00
	829	0.166	3.90428E-001	-3.01894E-004	0.00000E+000	3.89999E-001	0.00000E+000	9	...........	1368.00
	830	0.1662	3.80405E-001	-3.07658E-004	0.00000E+000	3.80002E-001	0.00000E+000	9	...........	1368.00
	831	0.1664	3.70423E-001	-3.13419E-004	0.00000E+000	3.70004E-001	0.00000E+000	9	...........	1368.00
	832	0.1666	3.60450E-001	-3.19122E-004	0.00000E+000	3.60007E-001	0.00000E+000	9	...........	1368.00
	833	0.1668	3.50467E-001	-3.24579E-004	0.00000E+000	3.50009E-001	0.00000E+000	9	...........	1368.00
	834	0.167	3.40495E-001	-3.29863E-004	0.00000E+000	3.40012E-001	0.00000E+000	9	...........	1368.00
	835	0.1672	3.30422E-001	-3.34736E-004	0.00000E+000	3.30014E-001	0.00000E+000	9	...........	1368.00
	836	0.1674	3.20509E-001	-3.39006E-004	0.00000E+000	3.20017E-001	0.00000E+000	9	...........	1368.00
	837	0.1676	3.10476E-001	-3.42802E-004	0.00000E+000	3.10020E-001	0.00000E+000	9	...........	1368.00
	838	0.1678	3.00514E-001	-3.46027E-004	0.00000E+000	3.00022E-001	0.00000E+000	9	...........	1368.00
	839	0.168	2.90481E-001	-3.48742E-004	0.00000E+000	2.90025E-001	0.00000E+000	9	...........	1368.00
	840	0.1682	2.80388E-001	-3.51558E-004	0.00000E+000	2.79977E-001	0.00000E+000	9	...........	1368.00